AQI,VIB,AccelY,GyroY,GyroZ,eCO2,CO,AccelX,AccelZ,TVOC,GyroX,label,OtobusID
-0.2334173416440533,0.7814629289146802,0.7688642342457271,0.7839406417718469,-0.0827065223334908,-0.2578009072820463,0.364217113926861,0.7788979242711495,0.7003288042586524,-0.2808039259258025,-0.6001136073407037,0,A002
-0.2495953355303766,0.7814629289146802,0.7688642342457271,0.7839406417718469,-0.0827065223334908,-0.276532710589261,0.364217113926861,0.7788979242711495,0.7003288042586524,-0.2968319844692548,-0.6001136073407037,0,A002
-0.2450015841799392,0.7814629289146802,0.7688642342457271,0.7839406417718469,-0.0827065223334908,-0.2909211915655877,0.5771150420656947,0.7788979242711495,0.7003288042586524,-0.2762327954612601,-0.6001136073407037,0,A001
-0.1790912387171403,0.7814629289146802,0.7688642342457271,0.7839406417718469,-0.0827065223334908,4.608835945469215,0.435183089973139,0.7788979242711495,0.7003288042586524,-0.2650065533141788,-0.6001136073407037,0,A002
-0.291738010962651,0.7814629289146802,0.7688642342457271,0.7839406417718469,-0.0827065223334908,-0.1949758586028172,-0.4164086225821944,0.7788979242711495,0.7003288042586524,-0.3064668485881522,-0.6001136073407037,0,A001
-0.2274254920565261,0.7814629289146802,0.7688642342457271,0.7839406417718469,-0.0827065223334908,-0.2341472251611733,0.5771150420656947,0.7788979242711495,0.7003288042586524,4.33151426958962,-0.6001136073407037,0,A001
-0.5288224960265346,0.6939157785793574,1.014935195393893,0.5568285127956868,-0.1327911137731096,-0.5005778707519337,0.3553070523053724,0.6772179150065613,0.7429031379956031,-0.0597892576903855,-0.7688555077098598,0,A001
-0.2771578436330016,-1.2679569499293173,-1.323749277535629,-1.2656510561771293,-0.5760943385068595,-0.2397698588281479,-0.9841364309524172,-1.1436465711689154,0.0468923369932967,-0.2837311529499909,0.0344988485666416,0,A002
-0.3985962280110966,-1.1338571406765832,-0.1260033666650496,-0.9810628617028954,0.0608937065676784,-0.0276970187996001,-0.6925455583736547,-1.4812075800349054,-1.5900725140554788,-0.0424845674154332,-1.0499507205467744,1,A004
-0.2923371959214038,0.7814629289146802,0.7688642342457271,0.7839406417718469,-0.0827065223334908,-0.271346822950349,0.5771150420656947,0.7788979242711495,0.7003288042586524,-0.2875293080921907,-0.6001136073407037,0,A002
-0.2336170699636375,0.7814629289146802,0.7688642342457271,0.7839406417718469,-0.0827065223334908,-0.2662484353792355,0.293251137880584,0.7788979242711495,0.7003288042586524,-0.2842741521433721,-0.6001136073407037,0,A002
-0.2388100062728277,0.7814629289146802,0.7688642342457271,0.7839406417718469,-0.0827065223334908,-0.2592235376946991,-0.2035106944433612,0.7788979242711495,0.7003288042586524,-0.3130715642671223,-0.6001136073407037,0,A001
-0.2386102779532435,0.7814629289146802,0.7688642342457271,0.7839406417718469,-0.0827065223334908,-0.2823409047448424,0.7190469941582505,0.7788979242711495,0.7003288042586524,4.358739468362599,-0.6001136073407037,0,A001
-0.366725718035557,0.731137794409999,0.549471497788697,0.8990166700019049,0.1802805959362401,-0.2553291472923439,0.4157696172475691,0.7519198497206098,0.8658724016620342,-0.4381532774970986,-0.8356120766878544,0,A002
-0.2178358602279112,-1.103789520273306,0.8742446578933114,0.8095102121294219,-0.3189178016840787,-0.1964741791605253,0.5880386798777861,0.8259894798969711,0.8664060821379042,-0.109231900254485,-0.7599924381298598,0,A002
-0.2745613754784065,0.7814629289146802,0.7688642342457271,0.7839406417718469,-0.0827065223334908,-0.2503920653344982,0.293251137880584,0.7788979242711495,0.7003288042586524,-0.3342258191172401,-0.6001136073407037,0,A001
-0.2222325557473359,-1.099419130945436,-1.1256637004690218,-1.2093435919477618,2.9246096905327565,-0.23727007240846,-0.5583405746747502,-1.2265371988354232,-1.49885012182475,-0.2112751860726573,2.8902549001496958,1,A004
-0.2599812081487571,0.7814629289146802,0.7688642342457271,0.7839406417718469,-0.0827065223334908,-0.2662235431185687,0.435183089973139,0.7788979242711495,0.7003288042586524,-0.2750722677734453,-0.6001136073407037,0,A001
-0.0750008728397754,0.7059941399921053,0.6349148087038,0.7839886711523762,0.1791366649950674,-0.015666720036027,0.3858180207191302,0.69729235106708,0.7248307306464178,4.291184793458418,-0.5807150902436832,0,A001
-0.2873439879317978,0.7814629289146802,0.7688642342457271,0.7839406417718469,-0.0827065223334908,4.627455356447964,0.364217113926861,0.7788979242711495,0.7003288042586524,-0.3316364582578222,-0.6001136073407037,0,A001
-0.2709662657258902,0.7814629289146802,0.7688642342457271,0.7839406417718469,-0.0827065223334908,-0.2853604113948155,0.7190469941582505,0.7788979242711495,0.7003288042586524,-0.3267863752664839,-0.6001136073407037,0,A002
-0.2837488781792815,0.7814629289146802,0.7688642342457271,0.7839406417718469,-0.0827065223334908,-0.2932324002529515,-0.2035106944433612,0.7788979242711495,0.7003288042586524,-0.2586609156817239,-0.6001136073407037,0,A001
-0.2821510516226076,-1.315147539244804,-1.5338805991535842,-1.2543895633312558,-0.2471691277246137,-0.2883369223218186,-0.0615787423508054,-1.1402791394199636,-1.7416679027118758,-0.3047562236782846,1.1926665805975467,1,A004
-0.2268263070977734,0.7814629289146802,0.7688642342457271,0.7839406417718469,-0.0827065223334908,-0.2983798180344694,-0.1325447183970833,0.7788979242711495,0.7003288042586524,-0.2949197755451124,-0.6001136073407037,0,A002
-0.3669621214923309,-1.5065821189770856,-1.1134506063608665,-0.9979835127805587,-0.3696716913656248,-0.083183700142998,-0.3040879515079564,-1.4326322696033282,-1.73571023884389,-0.2010532499835165,0.9096370178547852,1,A004
-0.2422053877057598,0.7814629289146802,0.7688642342457271,0.7839406417718469,-0.0827065223334908,-0.2649774214633712,0.435183089973139,0.7788979242711495,0.7003288042586524,-0.3048719215456325,-0.6001136073407037,0,A002
-0.2779567569113386,0.7814629289146802,0.7688642342457271,0.7839406417718469,-0.0827065223334908,-0.2707463914506292,-0.9841364309524172,0.7788979242711495,0.7003288042586524,-0.2846425398314307,-0.6001136073407037,0,A002
-0.2559866417570723,0.7814629289146802,0.7688642342457271,0.7839406417718469,-0.0827065223334908,-0.2725408971514251,-0.1325447183970833,0.7788979242711495,0.7003288042586524,4.337886879731027,-0.6001136073407037,0,A001
1.9893591270089408,-1.3263833938437293,-1.167823806398739,-1.2348696423984085,-2.2207203924180887,0.6122854349972816,-3.2550476644333077,-1.1900135160198682,-0.5532426661748847,-0.1742362528582546,1.1292053350068123,1,A004
-0.2643752311796103,0.7814629289146802,0.7688642342457271,0.7839406417718469,-0.0827065223334908,-0.2592031712996081,-0.2035106944433612,0.7788979242711495,0.7003288042586524,-0.2949573950970721,-0.6001136073407037,0,A001
-0.2370124513965696,0.7814629289146802,0.7688642342457271,0.7839406417718469,-0.0827065223334908,-0.2717790431128358,-0.7712385028135839,0.7788979242711495,0.7003288042586524,-0.3245788883496009,-0.6001136073407037,0,A001
-0.2202352725514935,0.7814629289146802,0.7688642342457271,0.7839406417718469,-0.0827065223334908,-0.2945494271355028,0.435183089973139,0.7788979242711495,0.7003288042586524,-0.197587347582248,-0.6001136073407037,0,A001
-0.2829499649009446,0.7814629289146802,0.7688642342457271,0.7839406417718469,-0.0827065223334908,-0.3056823021409867,0.7190469941582505,0.7788979242711495,0.7003288042586524,-0.2883292559234856,-0.6001136073407037,0,A002
-0.2422053877057598,-1.2949230009667383,-1.321741653443738,-1.2566418619004307,0.5751438992310008,-0.2634446616550411,-0.5583405746747502,-1.1907906156542418,-1.9746150420995252,-0.2899213437545366,0.7008419272693541,1,A003
-0.3353950054882242,-0.9271040820771717,0.6413807892481594,0.9584787777912278,-0.1427096664128026,-0.4632900593898459,0.096374690134849,0.4953759719679263,0.5916796034011628,-0.1373681986965727,-0.3913006202187932,0,A002
-0.2765586586742489,0.7814629289146802,0.7688642342457271,0.7839406417718469,-0.0827065223334908,-0.2366289081185581,0.364217113926861,0.7788979242711495,0.7003288042586524,-0.2217880763382378,-0.6001136073407037,0,A002
-0.229822231891537,0.7814629289146802,0.7688642342457271,0.7839406417718469,-0.0827065223334908,4.626862468057537,-0.2744766704896391,0.7788979242711495,0.7003288042586524,0.0677334151496839,-0.6001136073407037,0,A002
-0.229822231891537,0.7814629289146802,0.7688642342457271,0.7839406417718469,-0.0827065223334908,-0.2787141777967859,0.293251137880584,0.7788979242711495,0.7003288042586524,-0.2831150440612917,-0.6001136073407037,0,A001
-0.4089055158843467,1.0326582362880077,0.8541581042862108,0.9693883614189346,-0.2713379640295107,-0.060016922204464,0.8310423919412585,0.530116733674065,0.7076420524587428,-0.4721673360745612,-0.7634880639276714,0,A002
-0.24739832401495,0.7814629289146802,0.7688642342457271,0.7839406417718469,-0.0827065223334908,-0.2278502375234079,0.7190469941582505,0.7788979242711495,0.7003288042586524,-0.2769631826115728,-0.6001136073407037,0,A001
-0.2487964222520397,0.7814629289146802,0.7688642342457271,0.7839406417718469,-0.0827065223334908,-0.2755935934822872,0.364217113926861,0.7788979242711495,0.7003288042586524,-0.2872077673933649,-0.6001136073407037,0,A002
-0.2250287522215153,0.7814629289146802,0.7688642342457271,0.7839406417718469,-0.0827065223334908,-0.3090088133391834,0.293251137880584,0.7788979242711495,0.7003288042586524,-0.2774316525039017,-0.6001136073407037,0,A001
-0.2621782196641837,-1.3263833938437293,-1.6322541796562575,-1.260395692849055,-0.1296958381595259,-0.2734769970146818,-0.0615787423508054,-1.1182613164460475,-1.6478968084668475,-0.2971613329996194,1.1926665805975467,1,A004
-0.3400753155537134,-1.066332058913491,-1.1369321477574073,-1.3810404607143614,-0.2913074884944279,-0.1573642955315071,-0.3628407732923676,-1.316611742289542,-1.606396655073232,-0.5102210732581048,1.487080013480937,1,A004
-0.2139575062127522,0.8378901004433831,0.591781417908207,0.7729907269396133,-0.3458093808282157,-0.278650322877796,0.8123608688288001,0.6376858690114117,0.0784853605330066,-0.1718845842065546,-0.4347645881978247,0,A001
-0.2929363808801565,0.7814629289146802,0.7688642342457271,0.7839406417718469,-0.0827065223334908,-0.2741151440608664,0.293251137880584,0.7788979242711495,0.7003288042586524,-0.2720705114482047,-0.6001136073407037,0,A001
-0.3077863005212219,-1.6005391320754048,-0.99275347162564,-1.234804937727698,-0.4313739645832437,-0.3053901172807233,-0.3934189820382677,-1.6830414642530431,-1.760021969829065,-0.5431711572436838,1.4271002788199814,1,A003
-0.2821510516226076,-1.2949230009667383,-1.5218348546022369,-1.2281127466908843,-0.0122225485944381,-0.2849425231399853,0.8609789462508063,-1.1185203496575054,-1.779176340409887,-0.3032656376572382,1.1450706464044955,1,A004
-0.2422053877057598,-1.3241362229239444,-1.2360830255230428,-1.2633987576079548,-0.1062011802465083,-0.258390778428756,-0.4164086225821944,-1.2151397375312785,-1.998304581698269,-0.2850237039710983,1.176801269199863,1,A004
-0.037625983213496,0.8258904567224551,0.5054532409696386,1.0513789135999498,0.1149161900620909,-0.0766004701358258,0.9471744504116304,0.7928134951421104,0.9225965890525168,-0.0876363495393883,-0.6926312125948707,0,A002
-0.2621782196641837,-1.3286305647635144,-1.3578788870977812,-1.2641495237976794,0.0112721093185794,-0.2790588978914743,-0.1325447183970833,-1.018792563246238,-1.5541257142218192,-0.3004264261885783,1.0340134666207104,1,A004
-0.2360138097986484,0.7814629289146802,0.7688642342457271,0.7839406417718469,-0.0827065223334908,-0.2931977019502039,-0.2744766704896391,0.7788979242711495,0.7003288042586524,-0.2757125099596281,-0.6001136073407037,0,A002
-0.3656471546605052,0.5595915274280778,0.6864671631161094,0.5160516373111176,0.0916949349860241,-0.0660428046317485,-0.6662883816075756,0.5743003496761261,0.722721078767649,-0.0772154697770449,-0.775666346332419,0,A002
-0.228069160594401,0.7679280196175983,0.5685130518306326,0.7425793510833099,-0.3464039566579298,-0.2871595328480069,0.399719291270431,0.8108358252123962,0.6398776093012267,-0.1236774093821493,-0.7796829414607008,0,A002
-0.2222325557473359,-1.2949230009667383,-1.203961040052782,-1.267903354746304,-0.2001798118985786,-0.2391558497317007,-0.5583405746747502,-1.4863475099276335,-0.7062376094167732,-0.2190120373247556,0.3676703879179979,1,A003
-0.2469988673757815,0.7814629289146802,0.7688642342457271,0.7839406417718469,-0.0827065223334908,-0.1958810317179727,0.435183089973139,0.7788979242711495,0.7003288042586524,-0.3423984893297775,-0.6001136073407037,0,A002
2.36281913948883,-1.1304093875456342,-1.632731146246256,-1.1785548368668006,-0.2026805806323343,-0.3285239325137971,0.2531953975208051,-1.4434947543672594,-1.6044953057576523,-0.3124417678693783,1.5121842982565357,1,A004
-0.293335837519325,0.7814629289146802,0.7688642342457271,0.7839406417718469,-0.0827065223334908,-0.2938260429543077,0.435183089973139,0.7788979242711495,0.7003288042586524,-0.3018850710806023,-0.6001136073407037,0,A002
-0.2505939771282978,0.7814629289146802,0.7688642342457271,0.7839406417718469,-0.0827065223334908,-0.264411688266399,-0.2035106944433612,0.7788979242711495,0.7003288042586524,-0.2832392595630456,-0.6001136073407037,0,A002
-0.2851469764163712,-1.2275078733731857,-1.1544396457861303,-1.29943553471475,-0.8110409176370351,-0.2674575957988974,-0.1325447183970833,-1.474691015412031,-0.4732904700291236,-0.2782103062491817,0.0503641599643252,0,A002
-0.4423166273666861,-1.2700559797856976,1.0408531716528748,0.6129271495521126,-0.0687429783000237,-0.4692522268751067,-0.6106198250557113,0.930218116258912,0.8857151810408013,-0.4172324397992535,-0.4105290894542299,0,A001
4.2100747095090965,-1.4178806039239031,-1.162638690083018,-0.9626813621495854,-0.1493370311242013,-0.3785566948173739,-3.29103969037162,-1.4869981937744576,-1.014560218860439,1.3232135118350443,0.884937309671092,1,A003
-0.4558736405363237,-1.511314582048834,-1.4074836694816386,-1.17113958011009,0.1025040175526752,-0.5026160149942945,1.1629525788923922,-1.5122599564598764,-0.2566572606862223,-0.0613936137830361,1.0778861055646072,1,A004
-0.2879431728905505,0.7814629289146802,0.7688642342457271,0.7839406417718469,-0.0827065223334908,-0.282803297344501,-0.2035106944433612,0.7788979242711495,0.7003288042586524,-0.2999558268876479,-0.6001136073407037,0,A001
-0.2621782196641837,-1.2702041208491022,-1.3873240404455205,-1.313700092319523,-0.176685153985561,-0.2776257071258113,-0.2035106944433612,-1.0625691759826126,-1.716991298963184,-0.2996456430346968,1.2402625147905977,1,A003
-0.2591822948704201,0.7814629289146802,0.7688642342457271,0.7839406417718469,-0.0827065223334908,-0.2685158940327001,0.364217113926861,0.7788979242711495,0.7003288042586524,-0.2625023687988208,-0.6001136073407037,0,A001
-0.4433446193382478,-1.2968198899503065,-1.275132369075824,-1.2229007742942029,-0.0583411858284202,0.2813534196789038,-0.6377122430751829,-1.005412436751103,-1.06946189891683,-0.3526352117358192,1.1335319517759854,1,A003
-0.2376116363553223,0.7814629289146802,0.7688642342457271,0.7839406417718469,-0.0827065223334908,-0.2568353892925471,0.7190469941582505,0.7788979242711495,0.7003288042586524,-0.2624051258060192,-0.6001136073407037,0,A002
-0.2320192434069636,0.7814629289146802,0.7688642342457271,0.7839406417718469,-0.0827065223334908,-0.311418836758285,-0.345442646535917,0.7788979242711495,0.7003288042586524,-0.0598238385027994,-0.6001136073407037,0,A002
-0.2819513233030233,0.7814629289146802,0.7688642342457271,0.7839406417718469,-0.0827065223334908,-0.294987681785424,0.5771150420656947,0.7788979242711495,0.7003288042586524,-0.2910151499728378,-0.6001136073407037,0,A001
-0.2448018558603549,0.7814629289146802,0.7688642342457271,0.7839406417718469,-0.0827065223334908,-0.3120713157121263,0.293251137880584,0.7788979242711495,0.7003288042586524,-0.2875065944004414,-0.6001136073407037,0,A002
-0.2422053877057598,0.7814629289146802,0.7688642342457271,0.7839406417718469,-0.0827065223334908,-0.2670668627375219,0.293251137880584,0.7788979242711495,0.7003288042586524,-0.2998301917801597,-0.6001136073407037,0,A001
-0.3836586539058232,1.0505100469041546,0.6939969088892349,0.8937786089472247,-0.2834057113942053,4.495940682201085,0.2784042509784124,0.62736826040915,0.7156480295233558,-0.4887551899198272,1.184674197871108,0,A002
-0.3091143747664798,0.7814629289146802,0.7688642342457271,0.7839406417718469,-0.0827065223334908,-0.2787051260656343,0.293251137880584,0.7788979242711495,0.7003288042586524,-0.2733935839926001,-0.6001136073407037,0,A001
-0.5217971982456993,-1.5016095421283733,0.6997063342748135,0.5760787717326308,-0.0667786352880632,-0.0145356723924159,0.4726859825398397,0.9269589814145746,0.7217968061764419,-0.0856069234899992,-0.4073603096108836,0,A002
-0.2929363808801565,0.7814629289146802,0.7688642342457271,0.7839406417718469,-0.0827065223334908,-0.2316225464808187,-0.7712385028135839,0.7788979242711495,0.7003288042586524,-0.3210980150890238,-0.6001136073407037,0,A001
5.01008126832011,-0.994183604729012,-1.41721876106789,0.6122977915983222,-0.2174374807364179,-0.4197566288007787,0.3591599730844821,0.562780871730782,0.9331053519973972,-0.2888043350558536,-0.6634644461865703,0,A002
-0.3079160048489744,-1.292675830046953,-1.163139350184326,-1.2851709771099769,0.2227240305357374,-0.2193265240223599,-0.8422044788598614,-1.1117854861596017,-0.0577364629011559,0.1374374763110188,1.2085318919952304,0,A001
-0.2805532250659337,0.7814629289146802,0.7688642342457271,0.7839406417718469,-0.0827065223334908,-0.2994660257726561,0.435183089973139,0.7788979242711495,0.7003288042586524,-0.2877486371781446,-0.6001136073407037,0,A002
-0.2631768612621049,0.7814629289146802,0.7688642342457271,0.7839406417718469,-0.0827065223334908,-0.2861365973410614,0.7190469941582505,0.7788979242711495,0.7003288042586524,0.1246454090389716,-0.6001136073407037,1,A004
0.0035690413167796,-1.2010769355010666,-1.0381095911717193,-1.7197242021172456,0.0915200700202475,-0.1758488147464197,-0.4755404911522416,-1.6988706562328058,-2.0376293643620853,-0.2687583886755337,1.7302014684584597,0,A001
-0.2493956072107924,0.7814629289146802,0.7688642342457271,0.7839406417718469,-0.0827065223334908,-0.2644056537789646,0.7190469941582505,0.7788979242711495,0.7003288042586524,-0.311955754159939,-0.6001136073407037,1,A004
-0.2727638206021484,0.7814629289146802,0.7688642342457271,0.7839406417718469,-0.0827065223334908,-0.2669341040139658,0.293251137880584,0.7788979242711495,0.7003288042586524,-0.322695071540145,-0.6001136073407037,1,A004
-0.1334382676513233,-1.2388262763604545,-1.378167990356607,-1.0586812135418735,-0.8577866736014333,3.966089771153468,-1.712793757260083,-1.7211913550447533,-1.3920707833226222,-0.2220869176244494,1.3277511196123302,0,A002
-0.2434037576232652,0.7814629289146802,0.7688642342457271,0.7839406417718469,-0.0827065223334908,-0.2342022898590119,-0.4873745986284723,0.7788979242711495,0.7003288042586524,-0.2918860780908493,-0.6001136073407037,1,A003
-0.2412067461078386,0.7814629289146802,0.7688642342457271,0.7839406417718469,-0.0827065223334908,-0.2784305568873705,-0.0615787423508054,0.7788979242711495,0.7003288042586524,-0.2633654890852934,-0.6001136073407037,1,A003
-0.2659730577362842,0.7814629289146802,0.7688642342457271,0.7839406417718469,-0.0827065223334908,-0.2506100611930648,-0.7712385028135839,0.7788979242711495,0.7003288042586524,-0.2948204031437093,-0.6001136073407037,1,A003
-0.2781564852309228,0.7814629289146802,0.7688642342457271,0.7839406417718469,-0.0827065223334908,-0.2338643585626872,0.435183089973139,0.7788979242711495,0.7003288042586524,-0.3157872700368955,-0.6001136073407037,1,A004
-0.2929363808801565,0.7814629289146802,0.7688642342457271,0.7839406417718469,-0.0827065223334908,4.6360869364119015,0.7190469941582505,0.7788979242711495,0.7003288042586524,-0.3361564829159288,-0.6001136073407037,1,A004
0.3140379823363454,-1.2657097790095322,0.0173436158477536,-1.2476326676237317,9.03322074791732,-0.2849191395011772,5.402801413212587,-1.2330130291218693,-0.9115469526058878,0.3629091962774419,-2.265971304097485,0,A001
-0.2743616471588223,0.7814629289146802,0.7688642342457271,0.7839406417718469,-0.0827065223334908,-0.2811996323088171,-0.2035106944433612,0.7788979242711495,0.7003288042586524,-0.3078147642328985,-0.6001136073407037,1,A004
-0.2837488781792815,0.7814629289146802,0.7688642342457271,0.7839406417718469,-0.0827065223334908,-0.2643702011652877,0.7190469941582505,0.7788979242711495,0.7003288042586524,-0.3035701430872519,-0.6001136073407037,1,A004
-0.2222325557473359,-1.290428659127168,-1.2427751058293472,-1.2664018223668545,0.4341759517528955,-0.2461709413741561,-0.4873745986284723,-1.5104375985932126,-0.7822415489627434,-0.2462684674238906,0.5104581904971506,0,A002
-0.2118466831289555,0.7814629289146802,0.7688642342457271,0.7839406417718469,-0.0827065223334908,-0.2608513406801205,-0.7712385028135839,0.7788979242711495,0.7003288042586524,-0.2884648282711141,-0.6001136073407037,1,A004
-0.2020599954693278,-1.1758229422181288,-1.3786243360473245,-1.1365192715444463,-0.6465783122459121,-0.2985683957667935,0.293251137880584,-1.4822029785443085,-0.8296206281602314,-0.3010737664034327,1.3671850059720667,1,A004
0.3778450656217933,-1.4948429886432455,-1.3131456723994197,-1.343104691230157,-0.1339029363547725,0.702741647255009,-0.3280317937424087,-1.3335944620370486,-1.9843970787002927,-0.4427566876677914,0.825914763005097,0,A001
-0.2987452094802915,-1.344294777799953,-1.484962177503343,-1.5450928924063156,-3.1111629287174343,-0.2764754342824806,0.437735283412899,-1.5622570524205466,-0.925203056244885,-0.3506063430378426,1.014872561971591,0,A002
-0.255786913437488,0.7814629289146802,0.7688642342457271,0.7839406417718469,-0.0827065223334908,-0.2431371028165265,0.7190469941582505,0.7788979242711495,0.7003288042586524,-0.3130566584069118,-0.6001136073407037,1,A004
-0.2625776763033522,0.7814629289146802,0.7688642342457271,0.7839406417718469,-0.0827065223334908,4.620287893997791,0.293251137880584,0.7788979242711495,0.7003288042586524,-0.3318195873975508,-0.6001136073407037,1,A004
-0.4389453225390782,0.8418814350367005,0.6646108711587995,0.6915246268135552,-0.2160346170936826,-0.2650063146711802,0.1350161384182163,0.7525623531499607,0.8764270966993638,-0.0447884165142314,-0.4756500493785627,1,A004
-0.2541890868808141,0.7814629289146802,0.7688642342457271,0.7839406417718469,-0.0827065223334908,-0.2546886203877698,0.5771150420656947,0.7788979242711495,0.7003288042586524,-0.3092116562754792,-0.6001136073407037,1,A003
-0.2571850116745777,0.7814629289146802,0.7688642342457271,0.7839406417718469,-0.0827065223334908,4.639447391601916,0.293251137880584,0.7788979242711495,0.7003288042586524,-0.2687493438327398,-0.6001136073407037,1,A003
-0.268747109276699,-0.9745928772955182,-1.2061335162041906,-1.1929402061715206,-0.5633630899343818,-0.3406886219560272,2.815117286643245,-0.986472895779516,-1.5341858218651874,-0.3965522011376978,1.221613678712571,0,A001
-0.2641755028600261,0.7814629289146802,0.7688642342457271,0.7839406417718469,-0.0827065223334908,-0.2523638341036787,0.7190469941582505,0.7788979242711495,0.7003288042586524,-0.2912508045247366,-0.6001136073407037,1,A004
-0.2194363592731566,0.7814629289146802,0.7688642342457271,0.7839406417718469,-0.0827065223334908,-0.2447905523735439,0.5771150420656947,0.7788979242711495,0.7003288042586524,-0.3190566220430574,-0.6001136073407037,1,A003
-0.3421501393311634,0.9962874711276476,0.4845227155947205,0.7564710220624346,-0.1869399741341078,-0.2085370745949675,-0.086712917539718,-1.0106694953054038,0.5212297729339924,-0.3215332562823752,-0.7381001058949435,1,A003
-0.1363400854753162,-1.0778508095750416,-1.7853628825422316,-1.2949732128401237,0.3194591051316771,-0.4233640222145783,-0.5952516300530466,-1.1517124188907315,-1.6078774662780084,-0.1093407313048014,0.8996066903888917,0,A001
-0.5483248844660371,-1.30211557783896,-1.3418955941955806,-1.6082732442531131,-0.2653281073266622,-0.2616931811178455,0.9027013084176844,-1.1571305344872371,-0.7657111555908164,3.388385222309161,0.9905624850178664,0,A001
-0.2957325773543358,0.7814629289146802,0.7688642342457271,0.7839406417718469,-0.0827065223334908,-0.2849508205602076,-0.0615787423508054,0.7788979242711495,0.7003288042586524,-0.2801040602987779,-0.6001136073407037,1,A004
-0.2222325557473359,-1.285934317287598,-1.178531134888826,-1.2573926280901555,0.5281545834049657,-0.2420222312630266,-0.4873745986284723,-1.4708055172401635,-0.8681161300081905,-0.2305818240595447,0.4311316335087324,0,A001
-0.092695879952598,-1.114918954648765,-1.4068732144363587,-1.1297645031171042,0.2635575056021836,-0.1801671884095234,0.0837141937829116,-1.2794021153057693,-1.800215533289224,-0.3768198006993829,1.2109044324454574,0,A002
-0.2547882718395669,0.7814629289146802,0.7688642342457271,0.7839406417718469,-0.0827065223334908,-0.2633843167806974,0.293251137880584,0.7788979242711495,0.7003288042586524,-0.2972621250067568,-0.6001136073407037,1,A004
-0.0652466473584116,-1.2156240295910354,-0.2148165343301125,-1.0343268259100669,0.6973386912484271,-0.2435517992786858,-0.3838337980479287,-1.258535542985828,-1.766512865935964,-0.3058627953366953,2.312914152622479,0,A002
-0.2559866417570723,-1.2589682662501769,-1.331110565872564,-1.2949309375764004,-0.8345355755500526,-0.2055437547222581,0.293251137880584,-1.4552635245526933,-0.9115469526058878,-0.2937620870687663,1.4147809401651177,1,A004
-0.2240301106235941,0.7814629289146802,0.7688642342457271,0.7839406417718469,-0.0827065223334908,-0.2818015724303956,0.293251137880584,0.7788979242711495,0.7003288042586524,-0.3190857239606111,-0.6001136073407037,1,A004
-0.2837488781792815,0.7814629289146802,0.7688642342457271,0.7839406417718469,-0.0827065223334908,-0.267219987856169,0.435183089973139,0.7788979242711495,0.7003288042586524,-0.2501028225123158,-0.6001136073407037,1,A003
-0.2849472480967869,0.7814629289146802,0.7688642342457271,0.7839406417718469,-0.0827065223334908,-0.2341095096147085,0.293251137880584,0.7788979242711495,0.7003288042586524,-0.288851670833719,-0.6001136073407037,1,A003
-0.2977298605501782,0.7814629289146802,0.7688642342457271,0.7839406417718469,-0.0827065223334908,-0.2427033740321811,0.293251137880584,0.7788979242711495,0.7003288042586524,0.0865801008786483,-0.6001136073407037,1,A004
-0.2995274154264363,0.7814629289146802,0.7688642342457271,0.7839406417718469,-0.0827065223334908,-0.3223495564347175,-0.8422044788598614,0.7788979242711495,0.7003288042586524,-0.2985340917447164,-0.6001136073407037,1,A004
-0.2785559418700913,0.7814629289146802,0.7688642342457271,0.7839406417718469,-0.0827065223334908,-0.2710398184021255,0.5771150420656947,0.7788979242711495,0.7003288042586524,4.356556824546067,-0.6001136073407037,1,A003
-0.2262271221390207,0.7814629289146802,0.7688642342457271,0.7839406417718469,-0.0827065223334908,-0.2414987394780949,0.293251137880584,0.7788979242711495,0.7003288042586524,-0.2956473234839565,-0.6001136073407037,1,A003
-0.253190445282893,0.7814629289146802,0.7688642342457271,0.7839406417718469,-0.0827065223334908,-0.2439721250152575,0.435183089973139,0.7788979242711495,0.7003288042586524,-0.2829006835954079,-0.6001136073407037,1,A003
-0.2823507799421918,0.7814629289146802,0.7688642342457271,0.7839406417718469,-0.0827065223334908,-0.2994388705792014,0.293251137880584,0.7788979242711495,0.7003288042586524,-0.270742470283739,-0.6001136073407037,1,A004
-0.2142434229639664,0.7814629289146802,0.7688642342457271,0.7839406417718469,-0.0827065223334908,-0.2831736640107856,0.5771150420656947,0.7788979242711495,0.7003288042586524,-0.3303467464481834,-0.6001136073407037,1,A004
0.6078383404447608,-1.3286305647635144,-1.6115087307067142,-1.2491342000031815,-0.0827065223334908,1.211607343340131,-2.545387903970529,-1.2928497009686295,-0.7921121904622201,-0.1507020289945327,1.9383362162886777,0,A001
-0.248197237293287,0.7814629289146802,0.7688642342457271,0.7839406417718469,-0.0827065223334908,-0.2725039359158895,0.5771150420656947,0.7788979242711495,0.7003288042586524,-0.2938976594163948,-0.6001136073407037,1,A004
-0.2499947921695451,0.7814629289146802,0.7688642342457271,0.7839406417718469,-0.0827065223334908,-0.2529092009055599,0.364217113926861,0.7788979242711495,0.7003288042586524,-0.3098753219562784,-0.6001136073407037,1,A003
-0.0439081254767632,0.5687289065194214,-1.382175394800066,0.6405494772837135,-0.1152598217931697,-0.4866170879099709,-0.3117612517223664,0.4958541583868907,-1.598460252500544,-0.5807588105065661,-0.5762278910770864,1,A004
-0.2939350224780777,-1.2679569499293173,-1.261512930686999,-1.239374239536758,-0.5056103647678069,-0.3165300476151967,-0.700272526767306,-1.3210843210175338,0.1169738916395812,-0.2697991422732768,0.320074453724947,1,A003
-0.2621782196641837,-1.3061588555656636,-1.3705938396797597,-1.2446296028648325,0.1522400567966848,-0.2693282869035522,-0.345442646535917,-1.2260191324125076,-1.967705593049892,-0.294393101817676,1.1292053350068123,0,A002
-0.2787556701896755,0.7814629289146802,0.7688642342457271,0.7839406417718469,-0.0827065223334908,-0.2901450056193418,0.7190469941582505,0.7788979242711495,0.7003288042586524,-0.285487205243357,-0.6001136073407037,1,A003
-0.2232311973452571,-1.2634626080897469,-1.3163879891986945,-1.304690898042824,0.2932080042747901,-0.2661383059835582,-0.8422044788598614,-0.9820098472192252,-0.487109368128391,-0.2354936599003263,1.3671850059720667,1,A003
-0.2244264813587472,-1.1310660294948809,-1.4021518232051862,-1.1485973092740052,0.1476588193140177,4.440444767587191,0.246658264784262,-1.1254257183464145,-1.84128445139685,-0.263497637617164,1.0461869038080671,0,A001
-0.4591268529800748,-1.0813180457162617,0.6056664483808529,0.9763477597614708,-0.2995908206959677,-0.3744899667322294,0.8387764862363305,0.6384139974386572,0.687623957210251,-0.3022952063120378,-0.8318007975135083,1,A003
-0.2563860983962407,0.7814629289146802,0.7688642342457271,0.7839406417718469,-0.0827065223334908,-0.2917803517140562,0.435183089973139,0.7788979242711495,0.7003288042586524,-0.2949723009572826,-0.6001136073407037,1,A004
-0.2222325557473359,-1.2836871463678128,-1.2213604488491734,-1.2686541209360291,0.457670609665913,-0.2407399026832229,-0.4873745986284723,-1.4954136723286575,-1.1257398731445316,-0.2254712434159569,1.6051646769373211,0,A002
-0.2521918036849718,0.7814629289146802,0.7688642342457271,0.7839406417718469,-0.0827065223334908,-0.3020223855120412,0.364217113926861,0.7788979242711495,0.7003288042586524,-0.273603685641281,-0.6001136073407037,1,A003
-0.2649744161383631,0.7814629289146802,0.7688642342457271,0.7839406417718469,-0.0827065223334908,-0.2714833532285517,-0.0615787423508054,0.7788979242711495,0.7003288042586524,-0.3039364013667091,-0.6001136073407037,1,A004
4.91684207204342,-1.2506852441207643,0.5612791325460641,0.7217728823815662,-0.3405374454996716,-0.4403278956862795,-0.2797132166483493,1.0094026799563711,0.6595472002635931,-0.3988847101253703,-0.3610526729442936,1,A004
-0.2422053877057598,-1.319641881084374,-1.2728894672077165,-1.26114645903878,-0.1062011802465083,-0.2514511178792302,-0.345442646535917,-1.2135855382625316,-1.9528996308006763,-0.2645104011100305,1.3354543831766994,0,A002
3.1643608311230182,-1.317394710164589,-1.250805602196912,-1.2183527862244607,-4.076798367546475,2.440999890747665,0.8609789462508063,-1.3366263137050038,-0.9253658507051552,-0.2848625787202518,1.1133400236091286,0,A001
-0.2919377392822353,0.7814629289146802,0.7688642342457271,0.7839406417718469,-0.0827065223334908,-0.2810676278961903,0.293251137880584,0.7788979242711495,0.7003288042586524,-0.256664950019256,-0.6001136073407037,1,A004
-0.2963317623130886,0.7814629289146802,0.7688642342457271,0.7839406417718469,-0.0827065223334908,-0.3131914674421313,0.2222851618343061,0.7788979242711495,0.7003288042586524,-0.29667795724708,-0.6001136073407037,1,A004
-0.2549880001591511,0.7814629289146802,0.7688642342457271,0.7839406417718469,-0.0827065223334908,-0.3232615183482367,-0.2744766704896391,0.7788979242711495,0.7003288042586524,-0.3337573492249112,-0.6001136073407037,1,A003
-0.2222325557473359,-1.2971701718865234,-1.1805387589807173,-1.2686541209360291,-0.4116317331157366,-0.2404381783115044,-0.4873745986284723,-1.4575948234558136,-0.8769997073577195,-0.2241935982550599,1.4623768743581689,0,A001
-0.2234309256648413,0.7814629289146802,0.7688642342457271,0.7839406417718469,-0.0827065223334908,-0.2780187031199747,-0.2744766704896391,0.7788979242711495,0.7003288042586524,-0.2905928172668747,-0.6001136073407037,1,A004
-0.2300219602111212,0.7814629289146802,0.7688642342457271,0.7839406417718469,-0.0827065223334908,-0.2432924908679615,0.364217113926861,0.7788979242711495,0.7003288042586524,-0.2644962050526872,-0.6001136073407037,1,A004
-0.0531376485637599,-1.1186520095792287,-0.4622649952303977,-1.691218821733084,-0.1204316120414397,-0.1730345969097969,1.863978600494251,-1.5819432873393815,-1.6854455392414582,-0.1355287672247464,1.0643462375137354,0,A002
-0.3155255952057429,0.9048767474041256,0.6140729282495804,0.9071842711219612,-0.3144919423890842,-0.3539804397841595,-0.1660554605282828,-0.8362485592708819,0.7696192440378599,-0.0649836525442651,-0.8762580724397466,1,A004
4.79334500565207,-1.317394710164589,-1.5546260481031278,-1.2724079518846534,-0.1531904960725434,-0.1761369431436424,0.7190469941582505,-1.338180512973751,-1.792008174359207,-0.2325359113528498,1.1133400236091286,1,A004
-0.2769581153134174,0.7814629289146802,0.7688642342457271,0.7839406417718469,-0.0827065223334908,-0.2423480935844826,0.293251137880584,0.7788979242711495,0.7003288042586524,0.1281135058479396,-0.6001136073407037,1,A003
-0.261579034705431,0.7814629289146802,0.7688642342457271,0.7839406417718469,-0.0827065223334908,-0.2821251718190637,-1.5518642393226398,0.7788979242711495,0.7003288042586524,-0.2846510574658367,-0.6001136073407037,1,A004
1.0745693360250446,-1.5750545013714106,-1.4843786344339962,-1.492012368230346,0.1109752576450006,0.0254781218277383,-0.4245810924938246,-1.553731777188471,-1.0854116420864786,-0.5375088470567717,1.027357486957978,0,A002
-0.2444023992211864,0.7814629289146802,0.7688642342457271,0.7839406417718469,-0.0827065223334908,-0.266387228590226,0.7190469941582505,0.7788979242711495,0.7003288042586524,-0.2826025663911986,-0.6001136073407037,1,A004
-0.2296225035719527,0.7814629289146802,0.7688642342457271,0.7839406417718469,-0.0827065223334908,-0.2744312003402416,-0.2744766704896391,0.7788979242711495,0.7003288042586524,-0.295584860831646,-0.6001136073407037,1,A003
-0.0432381416344875,-1.425122204111106,0.5519680850334839,0.8971695441800345,0.056885759145949,-0.4159981982904817,0.2910526732011759,0.8377975656282832,0.724138855357455,-0.0172307052485627,-0.8533087300561571,1,A003
-0.2507937054478821,0.7814629289146802,0.7688642342457271,0.7839406417718469,-0.0827065223334908,-0.2880208660424435,0.5771150420656947,0.7788979242711495,0.7003288042586524,-0.3028880225319064,-0.6001136073407037,1,A003
-0.2222325557473359,-1.290428659127168,-0.9583616928114144,-1.2851709771099769,-0.5056103647678069,-0.2486601674408339,-0.345442646535917,-1.4718416500859948,-0.9135210809057832,-0.2550700229767363,0.8594950412461906,0,A002
-0.2821510516226076,-1.3286305647635144,-1.3337873979950856,-1.2633987576079548,-0.1296958381595259,-0.2887140777864668,0.5771150420656947,-1.478058447160983,-1.1523906051931188,-0.3054660265454496,1.0816094008137611,0,A002
-0.2957325773543358,0.7814629289146802,0.7688642342457271,0.7839406417718469,-0.0827065223334908,-0.2886401553153958,-1.055102406998695,0.7788979242711495,0.7003288042586524,0.1360086431394157,-0.6001136073407037,1,A004
-0.2621782196641837,-1.3106531974052338,-1.4355070186509111,-1.2656510561771293,-0.5291050226808244,-0.2676688028591004,-1.2680003351375282,-1.1604837299136748,-1.9874468760488448,-0.2931864369434955,1.1133400236091286,0,A001
-0.2422053877057598,-1.3263833938437293,-1.4529064274473025,-1.2581433942798803,-0.1296958381595259,-0.2513002556933709,-0.2035106944433612,-1.2628018484395205,-1.8995981667035025,-0.2640845193897315,1.1292053350068123,0,A001
-0.2617787630250152,0.7814629289146802,0.7688642342457271,0.7839406417718469,-0.0827065223334908,-0.2605300042242403,0.435183089973139,0.7788979242711495,0.7003288042586524,-0.3163040065241915,-0.6001136073407037,1,A004
-0.2471985956953658,-1.2275078733731857,-1.1256637004690218,-1.3016878332839246,-1.3749127075494567,-0.2849953249050361,-0.4873745986284723,-1.418998874948596,-0.2985801154883867,-0.2390107331071287,0.4787275677017832,1,A003
-0.2410070177882544,0.7814629289146802,0.7688642342457271,0.7839406417718469,-0.0827065223334908,-0.2976081579537993,-0.700272526767306,0.7788979242711495,0.7003288042586524,-0.3025991327649702,-0.6001136073407037,1,A004
-0.2477977806541185,0.7814629289146802,0.7688642342457271,0.7839406417718469,-0.0827065223334908,-0.2913594462155088,0.7190469941582505,0.7788979242711495,0.7003288042586524,-0.2938863025705202,-0.6001136073407037,1,A003
-0.2150423362423033,0.7814629289146802,0.7688642342457271,0.7839406417718469,-0.0827065223334908,-0.2590432573825973,-0.7712385028135839,0.7788979242711495,0.7003288042586524,-0.3098426710243888,-0.6001136073407037,1,A003
-0.2575835313087393,0.8134850827009354,-1.4771616582883058,-1.1729492612922543,-0.1715541483484852,-0.4166054507025805,-0.4025901762608758,0.8985946455837243,0.6708687600111765,-0.3444815862446134,-0.3759901591687785,1,A003
-0.2821510516226076,-1.3308777356832997,-1.3418178943626509,-1.2641495237976794,-0.0827065223334908,-0.287658042485452,-0.2035106944433612,-1.478058447160983,-1.1474552844433803,-0.3044723025314186,1.0657440894160777,0,A002
-0.3934577398250812,0.7511911960197104,0.6477480544029786,0.6158838868266926,-0.0058639929761425,-0.2889703679173794,-0.7084500274741762,0.815955299260209,0.9590606361106744,0.2528326594500645,-0.710476896081147,1,A003
-0.5162471881645889,0.7895711352751972,0.8798235686276151,0.7875520986706825,-1.3198013074027275,-0.474026418788924,-0.7181371192592024,-1.252656726859657,0.4529626154598484,0.0417677881417624,-0.5743346833808055,1,A004
-0.256585826715825,-1.2791928045282426,-1.1330249888059565,-1.2776633152127277,-0.0592118644204732,-0.2615845309033965,-0.4164086225821944,-1.0273406592243466,-0.2699552551399043,-0.317738518118732,1.827279036504892,1,A003
-0.2408072894686701,0.7814629289146802,0.7688642342457271,0.7839406417718469,-0.0827065223334908,4.630392643206644,0.7190469941582505,0.7788979242711495,0.7003288042586524,-0.2530257907193012,-0.6001136073407037,1,A003
-0.2703670807671375,-1.3061588555656636,-1.6101703146454531,-1.2844202109202518,-0.2001798118985786,-0.2522914202544662,0.7190469941582505,-1.3469876421633171,-1.8423484460065376,-0.2864305332538193,1.049878778018394,1,A004
-0.2507937054478821,-1.290428659127168,-1.1116103318257828,-1.2296142790703342,0.3167026621878077,-0.2529257957460044,-0.345442646535917,-1.0537620467930462,-0.2265244325422069,-0.3083059478169767,1.0022828438253433,1,A004
-0.2957325773543358,0.7814629289146802,0.7688642342457271,0.7839406417718469,-0.0827065223334908,-0.311630043818488,0.5771150420656947,0.7788979242711495,0.7003288042586524,-0.3093514874403106,-0.6001136073407037,1,A004
-0.4520557652436648,-1.1380715642077552,-1.5496141126937688,-1.3480316929637346,1.3108160861302764,-0.3183251568509606,-1.7388420104805522,-1.517500394752939,-1.757493753132862,-0.1186753224330955,1.166248165113399,0,A001
-0.2629771329425207,0.7814629289146802,0.7688642342457271,0.7839406417718469,-0.0827065223334908,-0.2932037364376383,0.435183089973139,0.7788979242711495,0.7003288042586524,-0.2940609140758427,-0.6001136073407037,1,A003
4.776967283446163,-1.128632352902642,-1.0835035945393046,-1.2296142790703342,3.6764387437493182,-0.3045455555705372,-0.7712385028135839,-1.0946892942033843,0.0044485785455471,4.341367752991604,2.192181198651616,1,A003
-0.0819122529564738,-1.0799684984493825,-1.4117837413926837,-1.1419360284146374,-0.4334429690381688,-0.5037820704259186,-0.0747088305311444,-1.0761630802544004,-0.7248083009983494,-0.267699401279669,1.1545635477578,0,A002
-0.293335837519325,0.7814629289146802,0.7688642342457271,0.7839406417718469,-0.0827065223334908,-0.2764391760340283,-0.2744766704896391,0.7788979242711495,0.7003288042586524,-0.3134023324032212,-0.6001136073407037,1,A004
-0.2965314906326728,0.7814629289146802,0.7688642342457271,0.7839406417718469,-0.0827065223334908,-0.2953052466866577,-0.1325447183970833,0.7788979242711495,0.7003288042586524,-0.1991694981731587,-0.6001136073407037,1,A003
4.800535225157103,0.7814629289146802,0.7688642342457271,0.7839406417718469,-0.0827065223334908,-0.1668491126712172,0.5771150420656947,0.7788979242711495,0.7003288042586524,-0.3367931760877758,-0.6001136073407037,1,A004
-0.1091863268626567,-0.8230171078118704,-1.2126607444509778,-1.0329135373624103,-1.6333539445926497,-0.1399586823527338,-0.9131704549061392,-1.590478860933684,-0.6776127490682908,3.236447441396308,2.95371614574043,0,A002
-0.1955968511510454,-1.267566869300993,-1.2529586923940053,-1.311365425402503,0.2807628564718387,-0.5063857157917157,-1.7353957505391575,-1.2909250180722345,0.6817476857829766,2.5756551125080978,0.9174383819001316,0,A001
4.915157658048535,-0.8658488018192757,-0.9715746376685752,0.9294657192150234,-0.2857467471886321,-0.2538168787774502,0.4955892595828902,0.7690364646916972,0.0846702728223167,-0.469275021550083,-0.6219058522280231,1,A003
-0.2877434445709663,0.7814629289146802,0.7688642342457271,0.7839406417718469,-0.0827065223334908,-0.2427516499316561,0.293251137880584,0.7788979242711495,0.7003288042586524,-0.2732054862328014,-0.6001136073407037,1,A003
-0.2444023992211864,0.7814629289146802,0.7688642342457271,0.7839406417718469,-0.0827065223334908,-0.2499085520288193,0.5771150420656947,0.7788979242711495,0.7003288042586524,-0.2986881189668912,-0.6001136073407037,1,A004
-0.2328181566853006,0.7814629289146802,0.7688642342457271,0.7839406417718469,-0.0827065223334908,-0.2740397129679368,0.364217113926861,0.7788979242711495,0.7003288042586524,-0.3176703770434841,-0.6001136073407037,1,A003
-0.2422053877057598,-1.319641881084374,-1.2427751058293472,-1.2633987576079548,-0.1062011802465083,-0.2520545666226672,-0.2744766704896391,-1.2179891028573149,-1.9894210043487404,-0.2664268688513759,1.2561278261882811,0,A001
-0.2312203301286267,0.7814629289146802,0.7688642342457271,0.7839406417718469,-0.0827065223334908,-0.3037678610024328,0.293251137880584,0.7788979242711495,0.7003288042586524,-0.2693895860189225,-0.6001136073407037,1,A004
-0.3582342464785965,-0.975809303360761,-1.5508320139264775,-1.1912848581101814,2.9745890230384195,-0.2095877943165839,-0.7293507177972628,-1.0291444142237964,-0.9489539683472848,4.175396367996454,2.3424632947133297,0,A001
-0.2651741444579473,0.7814629289146802,0.7688642342457271,0.7839406417718469,-0.0827065223334908,-0.2417589767487022,0.293251137880584,0.7788979242711495,0.7003288042586524,-0.2857171813723185,-0.6001136073407037,1,A004
-0.2821510516226076,-1.3286305647635144,-1.323080069504999,-1.2626479914182298,-0.0827065223334908,-0.2887140777864668,-1.764762167461473,-1.2185071692802305,-1.9499384383508336,-0.3066017111329135,1.1292053350068123,0,A002
-0.2823507799421918,-1.2072833350951198,-1.5927709058490624,-1.3527399341852178,0.7631011625351413,-0.2626714929525124,0.435183089973139,-1.2495911546551706,-1.853206151655962,-0.2955884098459818,0.796033795655456,1,A003
-0.2715654506846429,0.7814629289146802,0.7688642342457271,0.7839406417718469,-0.0827065223334908,-0.2732227942315089,0.5771150420656947,0.7788979242711495,0.7003288042586524,-0.2915460825174772,-0.6001136073407037,1,A004
-0.2545885435199826,0.7814629289146802,0.7688642342457271,0.7839406417718469,-0.0827065223334908,4.64382767516834,0.435183089973139,0.7788979242711495,0.7003288042586524,-0.2525033758090678,-0.6001136073407037,1,A003
-0.1715015625729392,-0.8095340822931599,-0.8546344480636974,-1.1590422572361936,-0.4116317331157366,-0.3131047216852622,-2.8292518081556404,-1.2376756269281104,-0.7180823792161452,1.8008235857630457,1.5417034313465867,0,A001
-0.2541890868808141,0.7814629289146802,0.7688642342457271,0.7839406417718469,-0.0827065223334908,-0.2263755596566337,-1.055102406998695,0.7788979242711495,0.7003288042586524,-0.31840999163107,-0.6001136073407037,1,A003
-0.0595434459531851,-1.198781130515633,-1.4792757539691193,-1.4295507228696571,-0.185149404793053,-0.4997072948508916,-0.1612191850628621,-1.286472855217603,0.0238353556029697,-0.3445965537141417,-0.7546273301870251,0,A002
-0.2621782196641837,0.7814629289146802,0.7688642342457271,0.7839406417718469,-0.0827065223334908,-0.2858876747343936,0.364217113926861,0.7788979242711495,0.7003288042586524,-0.3384328207109268,-0.6001136073407037,1,A004
0.4605220466597202,-1.5473023303078188,-1.310537208282176,-1.0557132632949895,-0.4616968777506332,-0.0504585708014568,-2.0250167488642634,-1.3226762787202475,-1.9834693715028973,-0.1821111525212683,1.0681206491676178,0,A002
-0.2222325557473359,-1.3061588555656636,-1.2548208503806948,-1.2806663799716276,0.1287453988836671,-0.2467743901175932,-0.2035106944433612,-1.4723597165089104,-0.7980345753619063,-0.2483268957386691,0.922956286836925,0,A001
-0.2735627338804853,0.7814629289146802,0.7688642342457271,0.7839406417718469,-0.0827065223334908,-0.2477836581409916,-0.9131704549061392,0.7788979242711495,0.7003288042586524,-0.2699439420581784,-0.6001136073407037,1,A003
-0.2743305011661904,-1.140994567001443,-0.8436323586921611,-0.975227031198502,-0.2912201040098284,-0.4491600466353461,0.2801945250541714,-1.5892271102479316,-0.820485103235231,0.1307907176943359,1.370002777744085,0,A002
-0.2741619188392381,0.7814629289146802,0.7688642342457271,0.7839406417718469,-0.0827065223334908,-0.2905817516474044,-0.9841364309524172,0.7788979242711495,0.7003288042586524,4.364057311443399,-0.6001136073407037,1,A003
-0.2585831099116674,-1.1982946514159796,-1.268874219023934,-1.186820606256015,3.605954770010266,-0.2109581985727469,-3.2550476644333077,-1.2433743575801828,-0.5690356925740474,-0.1125650307446257,-0.1241542654101946,0,A002
-0.2821510516226076,-1.3286305647635144,-1.3337873979950856,-1.2633987576079548,-0.1062011802465083,-0.2887140777864668,-0.1325447183970833,-1.4788355467953562,-1.1504164768932237,-0.3050401448251506,1.0816094008137611,0,A002
-0.2621782196641837,-1.3218890520041593,-1.4488911792635195,-1.2626479914182298,-0.2471691277246137,-0.2798132088207706,-0.0615787423508054,-1.0040276701931414,-1.2974890352354256,-0.3007813276221607,1.1450706464044955,0,A001
-0.2877434445709663,0.7814629289146802,0.7688642342457271,0.7839406417718469,-0.0827065223334908,-0.2892481299244085,0.293251137880584,0.7788979242711495,0.7003288042586524,-0.3295354417710139,-0.6001136073407037,1,A004
-0.2266265787781892,0.7814629289146802,0.7688642342457271,0.7839406417718469,-0.0827065223334908,-0.1708673269915785,0.293251137880584,0.7788979242711495,0.7003288042586524,-0.2079149792994983,-0.6001136073407037,1,A004
4.787952341023296,0.7814629289146802,0.7688642342457271,0.7839406417718469,-0.0827065223334908,-0.2896192509016223,0.7190469941582505,0.7788979242711495,0.7003288042586524,-0.1044704388474764,-0.6001136073407037,1,A004
-0.2595817515095886,0.7814629289146802,0.7688642342457271,0.7839406417718469,-0.0827065223334908,-0.2703775334062033,-0.2035106944433612,0.7788979242711495,0.7003288042586524,-0.1948773202354121,-0.6001136073407037,1,A003
-0.071420128245112,-1.3843390025966742,0.6838397190214096,0.5996121026589561,-0.0408480331901582,-0.2589647737744354,-0.1815841099807414,0.5931610722354862,-0.2050741356558304,-0.448873124685421,-0.6670299179527075,1,A004
-0.293335837519325,0.7814629289146802,0.7688642342457271,0.7839406417718469,-0.0827065223334908,-0.1831361942565826,0.5771150420656947,0.7788979242711495,0.7003288042586524,-0.2532429903966537,-0.6001136073407037,1,A003
-0.2845477914576184,0.7814629289146802,0.7688642342457271,0.7839406417718469,-0.0827065223334908,-0.2114658498281633,0.5771150420656947,0.7788979242711495,0.7003288042586524,-0.2792388106037037,-0.6001136073407037,1,A004
-0.2614859627292697,-1.195440354024859,-0.2168525382057823,-1.0384922552738824,5.360989063057449,-0.3582817404451124,0.7654112965311762,-0.9816866798072112,-1.2582283031259978,-0.4715566766421597,1.5928601801049402,0,A001
0.4586412857153343,-1.3218890520041593,-1.2869428358509556,-1.1665499191334423,-1.4923859971145443,0.0018600697751904,-2.687319856063085,-1.218766202491688,-1.9588220157003624,-0.2123434393877406,-0.8380932783059581,0,A002
-0.2789553985092597,0.7814629289146802,0.7688642342457271,0.7839406417718469,-0.0827065223334908,-0.2815722619078895,0.293251137880584,0.7788979242711495,0.7003288042586524,-0.2841187053154629,-0.6001136073407037,1,A003
-0.2619784913445995,0.7814629289146802,0.7688642342457271,0.7839406417718469,-0.0827065223334908,-0.2661714956644472,-0.700272526767306,0.7788979242711495,0.7003288042586524,-0.3337332159274275,-0.6001136073407037,1,A003
-0.1631347481687261,-0.8579800695120724,-1.4196259892274332,-1.2089403304639312,-0.0693538868441023,4.804685821479294,-0.3056699396694953,-1.019440158209539,-2.2310537778234494,-0.3893210652008925,0.9455147829217831,0,A002
-0.2402081045099174,0.7814629289146802,0.7688642342457271,0.7839406417718469,-0.0827065223334908,-0.2507594147570655,0.5771150420656947,0.7788979242711495,0.7003288042586524,-0.2341230305638307,-0.6001136073407037,1,A004
-0.3900160551946104,-1.1920170334841944,0.6590763414466276,0.9225292931434876,-0.0391529547292959,-0.4671028227695077,-0.8728803489152714,0.8720725528129395,0.8868544753664269,-0.1082848961374473,-0.6873432500970836,1,A003
-0.3697292851952254,1.063417775349381,0.6842783869471037,0.6778088860130018,-0.3190129242868146,-0.3457633152719686,-0.1029833037658893,0.6436253080506307,0.8879341105542881,-0.3143913638714196,-0.6953843315578446,1,A003
-0.0571493469105927,-1.2053558166570193,-0.9311066859242098,-1.0147585233873797,-3.5533813397643543,2.8467452061856284,-0.4305967889732073,-1.207167536359516,-2.0619058262983816,-0.027228592403236,1.1308414057880207,0,A002
-0.2871442596122135,0.7814629289146802,0.7688642342457271,0.7839406417718469,-0.0827065223334908,-0.2641755889455293,0.293251137880584,0.7788979242711495,0.7003288042586524,-0.2781073848334428,-0.6001136073407037,1,A003
-0.1754065814145094,-1.0253037862885082,-1.3595572018182915,-1.1523565158438844,-0.3939137781222158,-0.3448311209265003,-3.4170192809432414,-1.3542698653708207,-1.8672644721297265,-0.3657685152259322,1.1461114784822757,0,A002
-0.2745613754784065,0.7814629289146802,0.7688642342457271,0.7839406417718469,-0.0827065223334908,-0.2508846303713287,-0.8422044788598614,0.7788979242711495,0.7003288042586524,-0.0817077707003628,-0.6001136073407037,1,A004
-0.2803534967463494,0.7814629289146802,0.7688642342457271,0.7839406417718469,-0.0827065223334908,-0.2665395993979438,-1.6228302153689178,0.7788979242711495,0.7003288042586524,-0.3196400799998669,-0.6001136073407037,1,A004
-0.2465994107366131,0.7814629289146802,0.7688642342457271,0.7839406417718469,-0.0827065223334908,-0.2880412324375345,-0.345442646535917,0.7788979242711495,0.7003288042586524,-0.2256635999929586,-0.6001136073407037,1,A003
-0.2454010408191076,0.7814629289146802,0.7688642342457271,0.7839406417718469,-0.0827065223334908,-0.2468151229077752,0.7190469941582505,0.7788979242711495,0.7003288042586524,-0.3053985952730689,-0.6001136073407037,1,A004
-0.3053195366943793,0.7814629289146802,0.7688642342457271,0.7839406417718469,-0.0827065223334908,-0.2744394977604639,-0.0615787423508054,0.7788979242711495,0.7003288042586524,-0.2918811094707791,-0.6001136073407037,1,A003
-0.3153059526735912,0.7814629289146802,0.7688642342457271,0.7839406417718469,-0.0827065223334908,-0.1788947039011496,0.364217113926861,0.7788979242711495,0.7003288042586524,0.0647160431613655,-0.6001136073407037,1,A004
-0.242405116025344,0.7814629289146802,0.7688642342457271,0.7839406417718469,-0.0827065223334908,-0.2740691310941793,0.5771150420656947,0.7788979242711495,0.7003288042586524,-0.2693370606067523,-0.6001136073407037,1,A004
-0.2280246770152789,-1.3286305647635144,-1.3444947264851723,-1.2408757719162078,1.0685317154043694,4.456444771356273,-1.764762167461473,-1.229904630584375,-1.598543600969464,-0.2985702916909419,1.049878778018394,0,A002
4.790948265817059,-1.3263833938437293,-1.2889504599428467,-1.2649002899874044,-0.0827065223334908,4.624490160184901,-0.2035106944433612,-1.2195433021260615,-1.9558608232505192,4.345091378832751,1.1292053350068123,0,A001
-0.2094499432939446,-1.3061588555656636,-1.2119915364203473,-1.2483834338134563,0.3871866359268603,4.636350945237155,-0.7712385028135839,-1.0936531613575529,-0.0389822440521501,-0.298979847945296,1.049878778018394,1,A004
-0.0938872596682866,-1.451099522544246,-1.6405690330097753,-1.2330605641769188,-0.1039193748117162,-0.3791673579218496,-1.3420013060775005,-1.3089313189642653,-0.9202360895516754,0.0142201162991754,0.9760084603580228,0,A002
-0.1976659724384745,0.7814629289146802,0.7688642342457271,0.7839406417718469,-0.0827065223334908,-0.2619156734013576,-0.1325447183970833,0.7788979242711495,0.7003288042586524,-0.2956813940215804,-0.6001136073407037,1,A004
-0.3775425574080054,-1.4482086599462811,-1.4182728029256508,-1.2989893723360024,1.4735033032306266,0.1498417333806735,-1.0574490101235368,-1.26348768275552,-0.4229898110976165,3.394240980202881,1.7850965474797964,0,A001
-0.2651741444579473,0.7814629289146802,0.7688642342457271,0.7839406417718469,-0.0827065223334908,-0.2430827924296172,-0.0615787423508054,0.7788979242711495,0.7003288042586524,-0.2906510211019822,-0.6001136073407037,1,A003
-0.0339525404515793,-1.3623473870603002,-1.4558876654940862,-1.4094722621827025,-0.144739721005203,-0.1927415585669309,1.1179578063672704,-1.0011644615589828,-1.8416861521825192,2.625084451645666,1.007032075626691,0,A001
-0.2422053877057598,-1.3308777356832997,-1.318395613290586,-1.2649002899874044,-0.0827065223334908,-0.2558261212691486,0.7190469941582505,-1.491787207368248,-1.186937850441287,-0.2779256752994485,1.049878778018394,0,A001
-0.2861456180142924,0.7814629289146802,0.7688642342457271,0.7839406417718469,-0.0827065223334908,-0.3219384569782511,0.293251137880584,0.7788979242711495,0.7003288042586524,-0.312007569769242,-0.6001136073407037,1,A004
-0.5210639670457919,-1.3968955630865625,-1.298158902438325,-1.310441857087204,-0.1060172285636991,-0.1295976970766221,-0.7586670046501001,-1.1717986255043389,-1.1899343724283955,-0.4331836298577381,1.7231120509145592,0,A002
-0.1850830883046675,-1.3241362229239444,-0.381504370407983,-1.5104008340274468,-3.3484639722429312,-0.2692686963401378,-1.6228302153689178,-1.2226517006635556,-0.3913641455834673,-0.2198943222886417,1.4782421857558523,0,A002
-0.2282244053348631,-1.3106531974052338,-1.3786243360473245,-1.270155653315479,0.1992293726227198,-0.2748973644945467,0.5771150420656947,-1.3775535611153422,-2.0160717363973277,-0.2831278205129006,1.176801269199863,1,A004
-0.2422053877057598,-1.3241362229239444,-1.4763287085193673,-1.260395692849055,-0.0592118644204732,-0.2609554355883634,0.1513191857880282,-1.169808925526157,-2.003239902448008,-0.2877919351530417,1.2085318919952304,0,A001
-0.215641521201056,-1.3218890520041593,-1.1812079670113476,-1.261897225228505,-0.2471691277246137,-0.2729519966078915,-1.3389663111838062,-1.111267419736686,-0.0143056403034584,-0.2810055099400774,1.1926665805975467,1,A003
4.079715719777584,-0.9061624318439184,-1.0600813134672395,-1.472111758351477,-4.382228920415704,-0.3001780952899117,1.002910898343362,-1.239747892619773,-1.7821375328597302,1.9016858633843208,1.6844912339257392,0,A001
-0.2743616471588223,0.7814629289146802,0.7688642342457271,0.7839406417718469,-0.0827065223334908,-0.1993651939003922,0.7190469941582505,0.7788979242711495,0.7003288042586524,-0.2890958430200238,-0.6001136073407037,1,A003
-0.2821510516226076,-1.3286305647635144,-1.3337873979950856,-1.2633987576079548,-0.1531904960725434,-0.2875071802995927,0.293251137880584,-1.4772813475266091,-1.1593000542427525,-0.3044013222447021,1.0816094008137611,0,A002
-0.4553101359341149,0.7772827982192677,1.0395764314002047,0.9607295367110856,-0.2221505299348676,0.0032141545401523,0.8107688476183458,0.7511731777044504,0.4831063501770374,4.289785662519246,1.909740755320846,1,A003
-0.2821510516226076,-1.3286305647635144,-1.323749277535629,-1.2633987576079548,-0.1062011802465083,-0.2887140777864668,-1.764762167461473,-1.217212003222941,-1.962770272300153,-0.3066017111329135,1.1133400236091286,0,A001
-0.2611795780662626,0.7814629289146802,0.7688642342457271,0.7839406417718469,-0.0827065223334908,-0.3061876904636152,-0.2744766704896391,0.7788979242711495,0.7003288042586524,-0.302056133571589,-0.6001136073407037,1,A003
-0.2222325557473359,-1.315147539244804,-1.0674426018041745,-1.2724079518846534,-0.1062011802465083,-0.242550248913534,-0.4873745986284723,-1.2309407634302063,-2.1453771400404715,-0.2327112326610396,1.1609359578021794,0,A001
-0.2061168242210353,-1.1241798744788003,0.9344382801562956,0.5493076221702292,-0.2850330347862281,-0.1154090472060256,0.4132748366434164,-0.974128958794222,0.8614325468706944,4.396464968727283,-0.6949796675814636,1,A004
-0.2017555730058031,0.6893931364815018,1.0162021938853576,-1.2542318128366707,-0.0894626163600221,4.860617305985015,0.8214729174482336,1.0321028744593927,0.9741017005701472,-0.1602363316533801,-0.5550605180188374,1,A003
-0.2839486064988658,0.7814629289146802,0.7688642342457271,0.7839406417718469,-0.0827065223334908,-0.2658818402675975,0.364217113926861,0.7788979242711495,0.7003288042586524,-0.2290827204040922,-0.6001136073407037,1,A004
-0.2723643639629799,0.7814629289146802,0.7688642342457271,0.7839406417718469,-0.0827065223334908,-0.2719849699965337,0.293251137880584,0.7788979242711495,0.7003288042586524,-0.3031776221017097,-0.6001136073407037,1,A004
-0.283349421540113,-1.2634626080897469,-1.3491791826995856,-1.2536387971415308,-1.9857738132879128,-0.2747389591993945,-0.700272526767306,-1.1493453018209878,-0.0518140780014699,-0.2958318722294194,1.097474712211445,1,A004
-0.2735627338804853,0.7814629289146802,0.7688642342457271,0.7839406417718469,-0.0827065223334908,-0.3056076253589864,0.7190469941582505,0.7788979242711495,0.7003288042586524,4.367681564883144,-0.6001136073407037,1,A004
-0.2739621905196538,0.7814629289146802,0.7688642342457271,0.7839406417718469,-0.0827065223334908,-0.2759156842490967,0.7190469941582505,0.7788979242711495,0.7003288042586524,-0.3056342498249677,-0.6001136073407037,1,A003
-0.216440434479393,0.7814629289146802,0.7688642342457271,0.7839406417718469,-0.0827065223334908,-0.2644222486194091,-0.8422044788598614,0.7788979242711495,0.7003288042586524,-0.3049634861154968,-0.6001136073407037,1,A004
-0.3597520982918515,-1.238805685854096,-1.160623616574702,-1.3584739793870937,0.2015307969290614,-0.2624579588103697,0.5389287596924932,-1.2603542895294038,-2.063278817127413,-0.5248270364054235,1.297471628256796,0,A002
-0.1954689609230479,0.7814629289146802,0.7688642342457271,0.7839406417718469,-0.0827065223334908,-0.2595358224194278,0.7190469941582505,0.7788979242711495,0.7003288042586524,-0.3195442566127997,-0.6001136073407037,1,A003
-0.2821510516226076,-1.3308777356832997,-1.322410861474368,-1.2633987576079548,-0.1062011802465083,-0.2867528693702964,0.0803532097417503,-1.4785765135838984,-1.139558771243799,-0.3041174010978361,1.0816094008137611,0,A002
-0.0912178409068251,-1.271534893449521,-1.3859786529121505,-0.9182768005508072,0.1220982112883244,-0.2124866373713495,-0.3236874271444719,-0.9420005950576535,-1.4494667229986005,2.473802765454663,-2.722644325837503,0,A002
-0.274960832117575,0.7814629289146802,0.7688642342457271,0.7839406417718469,-0.0827065223334908,-0.3179036478174452,0.7190469941582505,0.7788979242711495,0.7003288042586524,-0.3280505341729048,-0.6001136073407037,1,A004
-0.2655736010971158,0.7814629289146802,0.7688642342457271,0.7839406417718469,-0.0827065223334908,-0.2982628998404285,0.364217113926861,0.7788979242711495,0.7003288042586524,-0.3061013001115622,-0.6001136073407037,1,A003
-0.4458826497006988,-1.2424895659424215,-1.350543699818161,-1.2591104988223885,-3.8555618893247567,0.6910922814064288,-2.46386443317237,-1.1609283728562638,-1.828728090245468,-0.0173855306798497,1.2314097677424776,0,A002
-0.2643752311796103,0.7814629289146802,0.7688642342457271,0.7839406417718469,-0.0827065223334908,-0.3064079492549698,-0.345442646535917,0.7788979242711495,0.7003288042586524,-0.2877571548125506,-0.6001136073407037,1,A003
-0.1473168768331096,0.6857029538025747,0.8265101247001495,0.5659184417260583,0.0351968640769551,-0.435316811553686,-0.8622489955188882,0.5593233681835822,0.9405735067814248,-0.2606933338097057,-0.7311059779609865,1,A004
-0.2278249486956946,0.7814629289146802,0.7688642342457271,0.7839406417718469,-0.0827065223334908,-0.2359070325592216,0.293251137880584,0.7788979242711495,0.7003288042586524,-0.3208637801428594,-0.6001136073407037,1,A004
-0.4806655956867186,0.6650199866729176,0.5558936379394771,-1.4096047871511257,-0.2487241642545393,-0.1636895886948222,0.635010271568168,0.8539978423468592,0.7040823420912413,-0.3461116785258762,-0.7412052615697945,1,A004
-0.1880790130984311,0.7814629289146802,0.7688642342457271,0.7839406417718469,-0.0827065223334908,-0.26280274305421,0.435183089973139,0.7788979242711495,0.7003288042586524,-0.2889240707261698,-0.6001136073407037,1,A003
-0.2399822836851466,0.8422750363361697,0.9501123439420354,0.6510166905855368,-0.140093538580845,-0.4455762873111255,-2.495837810925717,0.887682909319568,0.5983108111792941,-0.5575992747240093,-0.6977190349323045,1,A004
-0.2625776763033522,0.7814629289146802,0.7688642342457271,0.7839406417718469,-0.0827065223334908,-0.3026386575412762,0.7190469941582505,0.7788979242711495,0.7003288042586524,-0.2420458501671262,-0.6001136073407037,1,A004
-0.2356143531594799,0.7814629289146802,0.7688642342457271,0.7839406417718469,-0.0827065223334908,-0.314305584684702,0.364217113926861,0.7788979242711495,0.7003288042586524,-0.3258615021305679,-0.6001136073407037,1,A004
-0.2621782196641837,-1.3286305647635144,-1.5278577268779103,-1.2581433942798803,-0.0357172065074557,-0.2775502760328817,0.0803532097417503,-1.1369117076710118,-1.8393872535566944,-0.2995746627479803,1.0816094008137611,0,A002
-0.2621782196641837,0.7814629289146802,0.7688642342457271,0.7839406417718469,-0.0827065223334908,-0.2780096513888231,-0.9131704549061392,0.7788979242711495,0.7003288042586524,-0.234769660975818,-0.6001136073407037,1,A004
-0.2461999540974446,-1.236496557052326,-1.477667124580628,-1.245380369054557,0.8100904783611764,-0.2299781486549527,-0.9131704549061392,-1.083809899322155,-0.0330598591524642,-0.28998309660398,-0.1400195768078783,1,A004
-0.2414064744274228,0.7814629289146802,0.7688642342457271,0.7839406417718469,-0.0827065223334908,-0.292156752867775,0.5771150420656947,0.7788979242711495,0.7003288042586524,-0.3202526398742303,-0.6001136073407037,1,A004
-0.2991279587872679,-1.2409908988918965,-1.3913392886293026,-1.282918678540802,-0.1531904960725434,-0.2414549894441958,0.364217113926861,-1.4866065431390916,-0.928327043154998,-0.3176242398571184,2.493622115207605,1,A004
-0.5420324434195819,0.9327536747599154,0.9854107807336492,0.9895211348153952,0.0540993304577769,-0.375042438401099,0.5849698282658565,0.8132156676032954,0.4534093476670959,-0.4800868795269163,-0.5913310114193059,1,A003
-0.2641755028600261,0.7814629289146802,0.7688642342457271,0.7839406417718469,-0.0827065223334908,-0.2078149849303693,0.5771150420656947,0.7788979242711495,0.7003288042586524,-0.2983396057591133,-0.6001136073407037,1,A003
-0.3107122013231537,0.7814629289146802,0.7688642342457271,0.7839406417718469,-0.0827065223334908,-0.2666338882641058,0.7190469941582505,0.7788979242711495,0.7003288042586524,-0.3165283042302158,-0.6001136073407037,1,A003
-0.2727638206021484,0.7814629289146802,0.7688642342457271,0.7839406417718469,-0.0827065223334908,-0.3101968530528251,0.435183089973139,0.7788979242711495,0.7003288042586524,-0.2466666668323702,-0.6001136073407037,1,A003
-0.2821510516226076,-1.3286305647635144,-1.333118189964455,-1.2581433942798803,-0.0122225485944381,-0.2824532970733076,-0.0615787423508054,-1.0351116555680815,-1.4998371859746975,-0.3021299530697742,1.0022828438253433,0,A002
-0.0670357971072293,-1.1627083704983237,-1.202572608457933,-1.331551045685157,-0.3982483172831,-0.2243623505861814,-2.024169386744998,-1.0115086686137154,-2.1980726650985707,0.0829306968125199,-0.6353197632357147,0,A002
-0.2861456180142924,0.7814629289146802,0.7688642342457271,0.7839406417718469,-0.0827065223334908,-0.3165647459179443,0.7190469941582505,0.7788979242711495,0.7003288042586524,-0.3091598406661761,-0.6001136073407037,1,A003
-0.3137675920254792,0.7784829541347085,-1.149828824828989,0.6800760784084284,0.1593861488951437,-0.4644993846867901,0.3057837953931363,0.6421538946260524,0.5270704833546974,-0.4193547177886021,-0.8117948121561719,1,A004
-0.2467991390561973,0.7814629289146802,0.7688642342457271,0.7839406417718469,-0.0827065223334908,-0.2464153381152481,0.0093872336954724,0.7788979242711495,0.7003288042586524,-0.2607576733513293,-0.6001136073407037,1,A004
-0.2422053877057598,-1.3263833938437293,-1.3973621609049764,-1.260395692849055,-0.2001798118985786,-0.2508476691357931,-0.2035106944433612,-1.2703138115717978,-1.960796144000258,-0.2623809925085356,1.097474712211445,0,A001
-0.2226320123865044,-1.3286305647635144,-1.479005540641889,-1.2626479914182298,0.0347667672315969,-0.2570300015123055,0.5771150420656947,-1.3739270961549324,-1.771279827210306,-0.2409051969595921,1.0657440894160777,1,A004
-0.2661727860558684,0.7814629289146802,0.7688642342457271,0.7839406417718469,-0.0827065223334908,-0.1866392142122346,0.293251137880584,0.7788979242711495,0.7003288042586524,-0.29750416778446,-0.6001136073407037,1,A003
-0.2639757745404418,0.7814629289146802,0.7688642342457271,0.7839406417718469,-0.0827065223334908,-0.2749411145284459,-0.7712385028135839,0.7788979242711495,0.7003288042586524,-0.2658093403569424,-0.6001136073407037,1,A003
-0.2811524100246864,0.7814629289146802,0.7688642342457271,0.7839406417718469,-0.0827065223334908,-0.3089959900533853,0.5771150420656947,0.7788979242711495,0.7003288042586524,-0.2759801056405493,-0.6001136073407037,1,A003
-0.202259723788912,-1.3061588555656636,-1.3525252228527378,-1.26114645903878,-0.0357172065074557,-0.2112463453477381,2.0674005390375294,-1.4863475099276335,-1.0290075864496604,-0.0797487147869874,1.6051646769373211,0,A002
-0.2713301283449611,0.799814325631465,-1.138449337016764,0.5551828485666964,-0.0302752199381724,-0.497235329908249,-0.337697017300354,0.9385154990497596,0.9515558196364614,-0.1301223479559994,-0.321012232329764,1,A004
-0.2110477698506185,0.7814629289146802,0.7688642342457271,0.7839406417718469,-0.0827065223334908,-0.2788152554613116,0.7190469941582505,0.7788979242711495,0.7003288042586524,-0.2788413209980914,-0.6001136073407037,1,A003
-0.2208344575102462,0.7814629289146802,0.7688642342457271,0.7839406417718469,-0.0827065223334908,-0.2497539182883135,0.435183089973139,0.7788979242711495,0.7003288042586524,-0.2809068473415414,-0.6001136073407037,1,A003
-0.2683697975712951,0.7814629289146802,0.7688642342457271,0.7839406417718469,-0.0827065223334908,-0.2624572686485923,0.7190469941582505,0.7788979242711495,0.7003288042586524,0.0677085720493331,-0.6001136073407037,1,A004
-0.2056551052218441,0.7814629289146802,0.7688642342457271,0.7839406417718469,-0.0827065223334908,-0.3016595619550496,-0.2744766704896391,0.7788979242711495,0.7003288042586524,-0.3197486798385432,-0.6001136073407037,1,A003
-0.3924653324731507,-1.599523354248701,-1.1375728866424928,-1.4902336325073071,0.4000897048029704,-0.3977160175758095,-2.3318270867736204,-1.241550808125267,-2.0631173826003497,-0.2341879800157522,0.8706065672865625,0,A001
-0.279954040107181,-1.200541822335765,-0.8934485138402622,-1.2904263404380512,-3.113517393112756,-0.2572208421774175,-0.9841364309524172,-1.2249829995666763,0.1653400349870169,-0.2861728748130384,0.8436297298485069,1,A003
-0.3071170915706375,0.7814629289146802,0.7688642342457271,0.7839406417718469,-0.0827065223334908,-0.2690816272296723,0.293251137880584,0.7788979242711495,0.7003288042586524,-0.3029966223705826,-0.6001136073407037,1,A004
-0.266572242695037,0.7814629289146802,0.7688642342457271,0.7839406417718469,-0.0827065223334908,-0.2597040337566608,0.435183089973139,0.7788979242711495,0.7003288042586524,-0.2957005586989938,-0.6001136073407037,1,A003
-0.2264268504586049,0.7814629289146802,0.7688642342457271,0.7839406417718469,-0.0827065223334908,-0.2203591756845665,0.5771150420656947,0.7788979242711495,0.7003288042586524,-0.2776374953353795,-0.6001136073407037,1,A003
-0.2735163437805235,-1.0663806024405944,-1.7344568274550198,0.6175963820085921,-0.0270101582104797,-0.1866990034609979,0.432684068963891,0.8768114977745651,0.9258664454728058,-0.2964401420148521,-0.5893165990212251,1,A003
-0.3021238835810315,0.7814629289146802,0.7688642342457271,0.7839406417718469,-0.0827065223334908,-0.2869768997162975,-0.2744766704896391,0.7788979242711495,0.7003288042586524,-0.2917355998830103,-0.6001136073407037,1,A004
-0.2889418144884717,0.7814629289146802,0.7688642342457271,0.7839406417718469,-0.0827065223334908,-0.2537924990037659,-0.2744766704896391,0.7788979242711495,0.7003288042586524,-0.3089064410425982,-0.6001136073407037,1,A003
-0.2777570285917543,0.7814629289146802,0.7688642342457271,0.7839406417718469,-0.0827065223334908,-0.2809876709376849,0.364217113926861,0.7788979242711495,0.7003288042586524,-0.3058486102908515,-0.6001136073407037,1,A003
-0.2943344791172462,-1.319641881084374,-1.4448759310797372,-1.2528880309518062,-0.2001798118985786,-0.2146445160842179,0.7190469941582505,-1.3612344687934983,-1.7870728536094684,-0.2801643935424869,0.9070909754392412,1,A004
-0.2847475197772027,0.7814629289146802,0.7688642342457271,0.7839406417718469,-0.0827065223334908,-0.2778670866231861,0.5771150420656947,0.7788979242711495,0.7003288042586524,-0.2730039022185266,-0.6001136073407037,1,A004
-0.4101291887440015,-1.0653028440623011,-1.242304815079502,-1.239207279257253,0.0947353440047497,-0.1061606928908072,-0.779120720813309,-1.1771485259083785,-1.845347527973608,-0.3209104959583015,1.680370252219068,0,A002
-0.2701673524475533,-1.3308777356832997,-1.2093147042978256,-1.327213883734571,-4.405723578328722,-0.2685098595452657,-3.2550476644333077,-1.4394624986537652,-0.7565778810641042,4.0005388710535295,1.0657440894160777,0,A002
-0.2855464330555397,0.7814629289146802,0.7688642342457271,0.7839406417718469,-0.0827065223334908,-0.2920338001862997,0.364217113926861,0.7788979242711495,0.7003288042586524,-0.2852742643832075,-0.6001136073407037,1,A003
-0.2783562135505071,0.7814629289146802,0.7688642342457271,0.7839406417718469,-0.0827065223334908,-0.264913305034381,0.293251137880584,0.7788979242711495,0.7003288042586524,-0.2655523917190286,-0.6001136073407037,1,A004
-0.3506952496665882,-0.8487692695912313,-1.1530917323130974,-1.4071048545493403,-0.3949513917608474,-0.4518364963825855,1.2053541439987363,-1.207779478634232,-2.0818571374092505,-0.3870551209653629,1.1359557446098052,0,A002
-0.2926570835508904,-0.9941772865422508,-1.3542517788151138,-1.015338144167974,0.0045495789428976,-0.1693825471467732,0.2421790789301484,-1.2737862496978036,-1.0200719535673166,-0.1457815732979155,1.180012631444875,0,A002
-0.2783562135505071,0.7814629289146802,0.7688642342457271,0.7839406417718469,-0.0827065223334908,-0.2737032902934707,0.364217113926861,0.7788979242711495,0.7003288042586524,-0.2825542997962313,-0.6001136073407037,1,A003
-0.2028589087476647,0.7814629289146802,0.7688642342457271,0.7839406417718469,-0.0827065223334908,-0.2635645970927993,0.0093872336954724,0.7788979242711495,0.7003288042586524,-0.3003880968337513,-0.6001136073407037,1,A003
-0.2645749594991946,0.7814629289146802,0.7688642342457271,0.7839406417718469,-0.0827065223334908,-0.2739688077405829,0.5771150420656947,0.7788979242711495,0.7003288042586524,-0.2591712639432155,-0.6001136073407037,1,A004
4.073124685231305,-1.3106531974052338,-1.0567352733140871,-1.2123466567066616,0.0817560830576321,-0.1798383468736992,-0.9131704549061392,-1.1957122466719403,-1.4425874652777326,-0.3029604224243572,-2.408759106676638,0,A001
4.966693868127313,0.594357042562774,0.5635450364563668,0.7767645151710618,-0.3319943958015477,-0.2007937241830626,-0.1578756130368498,0.9943296176760136,0.583221471699647,-0.0083127671746929,-0.5007990130596343,1,A004
4.908122043625199,-1.4325144914667642,-1.5925497264490247,-1.481716280220388,0.112226881107043,-0.0619099377323945,1.7729362531151118,-1.2066497195077086,-2.002091196954264,-0.1903011504091784,0.6936157170127112,0,A001
-0.4505291385906646,1.0278641903891923,-1.0919820285183524,0.9023288773837654,-0.0196561891701505,-0.374753933593624,0.1833252744951397,0.7228095362268644,0.7330792222223688,-0.4731858103761424,-0.4167528671806198,1,A004
-0.2745613754784065,-1.254473924410607,-1.1845540071644995,-1.2784140814024527,-1.844805865809808,-0.2101390169035311,-1.055102406998695,-1.1073819215648184,-0.0715553610004231,-0.2731756745123805,1.176801269199863,1,A004
-0.3043208950964581,0.7814629289146802,0.7688642342457271,0.7839406417718469,-0.0827065223334908,-0.3042679691485562,0.293251137880584,0.7788979242711495,0.7003288042586524,-0.3042678793056751,-0.6001136073407037,1,A004
-0.2595817515095886,0.7814629289146802,0.7688642342457271,0.7839406417718469,-0.0827065223334908,-0.2667153538444698,0.293251137880584,0.7788979242711495,0.7003288042586524,-0.201193146147446,-0.6001136073407037,1,A003
-0.2446021275407706,0.7814629289146802,0.7688642342457271,0.7839406417718469,-0.0827065223334908,-0.2768231202970401,0.293251137880584,0.7788979242711495,0.7003288042586524,-0.2578503208074215,-0.6001136073407037,1,A003
-0.2422053877057598,-1.2769456336084577,-1.167823806398739,-1.2709064195052036,-0.388137075202719,-0.2590696582651227,-0.5583405746747502,-1.2384527265624836,-2.032851826946437,-0.2860884082718458,1.8590096593002596,0,A002
-0.13194775907806,-1.5347025550934663,-0.7590569420029621,-0.977094015904845,0.9316849426952378,-0.2568980692759969,2.1183928872063063,-1.5250128721931493,-2.108815828992987,-0.5054502447407578,1.1687950311718631,0,A002
-0.2452013124995234,0.7814629289146802,0.7688642342457271,0.7839406417718469,-0.0827065223334908,-0.2861260369880512,0.5771150420656947,0.7788979242711495,0.7003288042586524,-0.3097901456122186,-0.6001136073407037,1,A003
-0.0527870307010342,-1.0297208327876637,-1.2447587501005206,-1.3958990883268565,0.1307584763407322,-0.0778508869858831,-1.8601831637565844,-1.207350160722214,-1.6860650568754836,-0.1549272116383671,1.2193865720751456,0,A002
-0.013473935526423,0.5900363915957763,0.8658275475347555,0.8208115787339239,-0.308189900328603,-0.4302893933757681,0.2410625509392938,0.6393125165158405,0.5984991159159823,-0.4019197425987506,-0.665288138580912,1,A003
-0.2321740908994487,-0.7349315535126147,-1.4423096379596565,-1.2058281100925856,1.163534653430602,-0.0546453673696153,0.1721834490315225,-1.228437394290456,-0.6903615595733388,-0.0624851653622237,0.9865843031901526,0,A001
0.0703782701759403,-1.4622948283182082,-1.2711951455456936,-1.457996129436724,-1.6192907708502198,-0.5452591275971667,-0.3956702380253439,-1.5240585060578011,-0.6628618103289834,4.556593884724536,-0.7050751516710908,0,A002
-0.2755600170763277,0.7814629289146802,0.7688642342457271,0.7839406417718469,-0.0827065223334908,-0.2511614624823804,-0.1325447183970833,0.7788979242711495,0.7003288042586524,-0.3295276339394751,-0.6001136073407037,1,A003
-0.3061184499727162,0.7814629289146802,0.7688642342457271,0.7839406417718469,-0.0827065223334908,-0.2975900544914962,0.293251137880584,0.7788979242711495,0.7003288042586524,-0.3140851627614339,-0.6001136073407037,1,A003
-0.5253511597652563,-1.0178008773344955,-1.238852691416489,-1.1372659450431797,4.402828477696869,-0.4665799368858958,-0.618878575102214,-1.4717659457507806,-1.834191910127838,-0.3699217769517686,-0.4913242028805826,0,A002
-0.2879431728905505,0.7814629289146802,0.7688642342457271,0.7839406417718469,-0.0827065223334908,-0.2644199856866212,-0.7712385028135839,0.7788979242711495,0.7003288042586524,-0.2732345881503552,-0.6001136073407037,1,A004
-0.2563860983962407,0.7814629289146802,0.7688642342457271,0.7839406417718469,-0.0827065223334908,-0.3102866160534113,0.7190469941582505,0.7788979242711495,0.7003288042586524,-0.2971414585193387,-0.6001136073407037,1,A003
-0.2581836532724989,0.7814629289146802,0.7688642342457271,0.7839406417718469,-0.0827065223334908,-0.2415221231169031,0.364217113926861,0.7788979242711495,0.7003288042586524,4.354736180191789,-0.6001136073407037,1,A003
-0.103931645935706,0.8793957773964088,0.6329026746564466,0.653450373134638,-0.2607674807605177,-0.2838080126102664,0.5094796763266907,0.5439850814641547,0.7767710170248406,-0.3731251028615252,-0.3513411067471082,1,A004
-0.4083628836113963,0.621808524083407,0.8382672762632768,1.0038426879888862,0.1510195133292017,-0.3855805452978931,0.3927927943617815,0.5147867689073128,0.1114634684571851,-0.0047057762456919,-0.4925515658906854,1,A004
-0.2014236081472879,-1.208414147997069,-0.832413256380006,-1.529492445502853,0.0170096485579326,-0.0488212330614873,-0.6133400889015422,-0.9557456727640478,-1.8904111654794984,-0.1512661540723301,1.778467369802603,0,A002
-0.3053195366943793,0.7814629289146802,0.7688642342457271,0.7839406417718469,-0.0827065223334908,-0.2539373267021907,-0.345442646535917,0.7788979242711495,0.7003288042586524,-0.2994234747372741,-0.6001136073407037,1,A003
-0.2821510516226076,-1.3286305647635144,-1.323749277535629,-1.2633987576079548,-0.0827065223334908,-0.2887140777864668,-1.764762167461473,-1.2179891028573149,-1.962770272300153,-0.3066017111329135,1.1292053350068123,0,A001
-0.2422053877057598,-1.3263833938437293,-1.2996577884329337,-1.261897225228505,-0.1062011802465083,-0.2523562909943857,-0.345442646535917,-1.2198023353375194,-1.9756021062494729,-0.2674205928654069,1.176801269199863,0,A001
-0.2561863700766565,0.7814629289146802,0.7688642342457271,0.7839406417718469,-0.0827065223334908,-0.2804702136401876,0.7190469941582505,0.7788979242711495,0.7003288042586524,-0.2349031039148451,-0.6001136073407037,1,A004
-0.2626169077022435,-1.0817526484974591,-1.1476806976702836,-1.3278065893468458,-0.0430320266754618,-0.4431645249542589,-0.7600535415799957,-0.9685056608244204,-0.9201687136388982,0.0952316673931869,1.1237576235694893,0,A001
-0.2422053877057598,-1.3331249066030848,-1.2795815475140206,-1.2626479914182298,-0.1062011802465083,-0.2559015523620783,-0.2744766704896391,-1.219284268914604,-1.9538866949506244,-0.278138616159598,0.9864175324276596,0,A001
-0.2286238619740316,0.7814629289146802,0.7688642342457271,0.7839406417718469,-0.0827065223334908,-0.245027406005343,0.293251137880584,0.7788979242711495,0.7003288042586524,-0.2815669640080049,-0.6001136073407037,1,A004
-0.2673711559733739,0.7814629289146802,0.7688642342457271,0.7839406417718469,-0.0827065223334908,-0.2827504955794503,-0.700272526767306,0.7788979242711495,0.7003288042586524,-0.286554038952706,-0.6001136073407037,1,A004
0.1324981146030797,-1.2949496665116735,-1.4451703719312623,-1.3057958523404172,-0.2130175386245054,-0.2112437851362883,-0.7460801825499389,-0.9748782511682148,-0.9942811361288636,3.7212413688462886,-2.280221886519441,0,A001
-0.2731632772413169,0.7814629289146802,0.7688642342457271,0.7839406417718469,-0.0827065223334908,-0.2589572659366576,0.364217113926861,0.7788979242711495,0.7003288042586524,-0.2934838443448376,-0.6001136073407037,1,A003
-0.0245345770014979,0.7028027865382891,0.9605699904974544,0.9686107296416918,-0.1411542113804162,-0.471436129284675,-0.7178830170734385,0.5084785561469093,0.7240852258454435,-0.0771211201654412,-0.5936590255181821,1,A003
-0.2537896302416457,0.7814629289146802,0.7688642342457271,0.7839406417718469,-0.0827065223334908,-0.2924554599957764,-0.8422044788598614,0.7788979242711495,0.7003288042586524,-0.2953406886453412,-0.6001136073407037,1,A003
-0.2460456392269203,0.6416568662382643,0.8308588679224337,-1.0106682294550786,0.1069162205398063,-0.1076162573627604,0.6063779130800923,1.033837819081579,0.4879409453292118,-0.4524295590214663,-0.6194388109833959,1,A004
-0.2995274154264363,0.7814629289146802,0.7688642342457271,0.7839406417718469,-0.0827065223334908,-0.2767793702631409,0.5771150420656947,0.7788979242711495,0.7003288042586524,-0.2861139611750637,-0.6001136073407037,1,A003
-0.2914693363335611,-1.1803640955823371,-1.1469603897106124,-1.005640714817489,-0.1281766516657888,-0.3933183359368217,-0.4484854091581886,-1.213194991634018,-2.1446616599289774,-0.4427015019820784,3.354176209171325,0,A002
-0.2657733294167,0.7814629289146802,0.7688642342457271,0.7839406417718469,-0.0827065223334908,-0.2600955211289656,0.293251137880584,0.7788979242711495,0.7003288042586524,-0.234210336316492,-0.6001136073407037,1,A004
-0.2675708842929581,0.7814629289146802,0.7688642342457271,0.7839406417718469,-0.0827065223334908,-0.2775329268815079,0.7190469941582505,0.7788979242711495,0.7003288042586524,-0.3087403471716816,-0.6001136073407037,1,A003
-0.2729635489217326,-1.1938003095764094,-1.3291029417806726,-1.2491342000031815,1.1860050049694573,-0.2958144065639327,-0.9131704549061392,-1.063864342039902,-0.0863613232496382,-0.3048257843592667,-0.8539585897036417,1,A004
-0.4569427501772267,-1.36204056060391,-1.3415094985138545,-1.0496083216061844,0.0959610460186315,-0.3102278112154319,0.4347998693937457,-1.2024020102796704,-2.0678926133811477,-0.1973267718571442,0.8841976270749191,0,A001
-0.2949336640759989,0.7814629289146802,0.7688642342457271,0.7839406417718469,-0.0827065223334908,-0.2809522183240079,0.364217113926861,0.7788979242711495,0.7003288042586524,-0.2170536912142474,-0.6001136073407037,1,A004
-0.4363110286257322,1.059886812216941,0.546099680249082,0.9469887420768672,-0.1403787756165899,-0.0573277071955553,0.2901838766499587,0.6690807855810995,0.5360498976606607,-0.4848361579059156,-0.8800246682963638,1,A004
-0.255786913437488,-1.315147539244804,-1.3659093834653464,-1.2686541209360291,-0.3646424172897015,-0.2878285167554729,0.293251137880584,-1.4767632811036937,-0.9224046582553124,-0.2515657262215429,0.9705522210299758,1,A004
-0.2683697975712951,0.7814629289146802,0.7688642342457271,0.7839406417718469,-0.0827065223334908,-0.2667741900969549,0.7190469941582505,0.7788979242711495,0.7003288042586524,-0.3034551550227712,-0.6001136073407037,1,A003
-0.0179532039070251,0.75403344740193,0.9374388909244638,0.93636685028497,-0.2026049277454447,-0.3897691112196395,0.3208501270423272,0.7623142206668483,0.9569880846599786,-0.3461103267823228,-0.3203552575556656,1,A003
-0.256585826715825,-1.292675830046953,-1.3157187811680642,-1.2791648475921775,0.5046599254919482,-0.2334826772324633,-0.700272526767306,-1.2946629334488342,-0.0893225156994811,-0.2970939017272387,1.176801269199863,1,A003
-0.1905276325953023,-1.0959537749042092,-1.3871472106446785,-1.3317134437801417,1.0567799684928785,-0.3654031049205593,1.095837658208904,-1.1597818104565936,-1.8231532999291804,-0.0564098811357489,1.3343812321049469,0,A001
-0.2981293171893467,0.7814629289146802,0.7688642342457271,0.7839406417718469,-0.0827065223334908,-0.275822149693864,0.364217113926861,0.7788979242711495,0.7003288042586524,-0.3015763068333855,-0.6001136073407037,1,A004
-0.28414833481845,0.7814629289146802,0.7688642342457271,0.7839406417718469,-0.0827065223334908,-0.2810570675431801,0.364217113926861,0.7788979242711495,0.7003288042586524,-0.3054170501476152,-0.6001136073407037,1,A003
-0.2477977806541185,0.7814629289146802,0.7688642342457271,0.7839406417718469,-0.0827065223334908,-0.2105727456878764,0.5771150420656947,0.7788979242711495,0.7003288042586524,-0.3303034484732864,-0.6001136073407037,1,A003
-0.1367188935946986,0.6823548803541435,0.5679838354087917,0.5334539700028684,0.0324832171593477,-0.1112339083104218,0.9179530052544668,0.652516502121826,0.4839666741837642,-0.5515349044599512,-0.8382660202514755,1,A003
-0.2296225035719527,0.7814629289146802,0.7688642342457271,0.7839406417718469,-0.0827065223334908,-0.2657807626030717,0.5771150420656947,0.7788979242711495,0.7003288042586524,-0.2696905424346005,-0.6001136073407037,1,A003
-0.2999268720656048,0.7814629289146802,0.7688642342457271,0.7839406417718469,-0.0827065223334908,-0.277151245551284,0.7190469941582505,0.7788979242711495,0.7003288042586524,-0.310820069572475,-0.6001136073407037,1,A003
-0.2629771329425207,0.7814629289146802,0.7688642342457271,0.7839406417718469,-0.0827065223334908,-0.2789185960586252,-0.700272526767306,0.7788979242711495,0.7003288042586524,-0.3110202339810155,-0.6001136073407037,1,A003
-0.432367144580299,1.006334363772696,0.8071672938935645,0.5031184378577864,-0.1594345174219469,-0.2902585819466339,0.4630573516598309,0.5699409522889473,0.9037925461429236,-0.0321069433483086,1.39063068950231,1,A003
-0.2479975089737028,-1.2589682662501769,-1.1551088538167609,-1.2303650452600592,-1.0224928388541932,-0.2910531959782146,-0.4873745986284723,-1.4143362771423549,-0.3607651569350897,-0.2968078511717713,0.7008419272693541,1,A003
-0.2416062027470071,0.7814629289146802,0.7688642342457271,0.7839406417718469,-0.0827065223334908,-0.2842312079336589,0.364217113926861,0.7788979242711495,0.7003288042586524,-0.29392392212248,-0.6001136073407037,1,A003
-0.2515926187262191,0.7814629289146802,0.7688642342457271,0.7839406417718469,-0.0827065223334908,-0.267907165112758,-0.7712385028135839,0.7788979242711495,0.7003288042586524,-0.2846098888995411,-0.6001136073407037,1,A003
-0.0235849626835858,0.6831031910238985,0.7855538770385354,0.6831549385068815,-0.07448946638781,-0.2913409317701272,0.3185353606794293,0.5747272421114147,0.9395698150439648,-0.4335763431481042,-0.3797830436021638,1,A003
-0.2817515949834391,0.7814629289146802,0.7688642342457271,0.7839406417718469,-0.0827065223334908,-0.2413192134769224,0.5771150420656947,0.7788979242711495,0.7003288042586524,-0.3177938827423709,-0.6001136073407037,1,A003
-0.28414833481845,0.7814629289146802,0.7688642342457271,0.7839406417718469,-0.0827065223334908,4.644130908161918,-0.345442646535917,0.7788979242711495,0.7003288042586524,-0.2148696277919808,-0.6001136073407037,1,A004
-0.2521918036849718,0.7814629289146802,0.7688642342457271,0.7839406417718469,-0.0827065223334908,-0.2804362696483694,0.7190469941582505,0.7788979242711495,0.7003288042586524,-0.2806349928434172,-0.6001136073407037,1,A003
0.1438972406149251,-1.5934916853827858,-1.384594290667285,-1.6612588381493816,-0.1208728124533523,0.8992996071773649,6.01575583788151,-1.3956562140253332,-0.1409563459664775,-0.1585477969574992,0.7718371405794833,0,A002
-0.2529907169633087,0.7814629289146802,0.7688642342457271,0.7839406417718469,-0.0827065223334908,-0.2563692251382419,-0.0615787423508054,0.7788979242711495,0.7003288042586524,-0.2922977637538049,-0.6001136073407037,1,A003
-0.2150423362423033,0.7814629289146802,0.7688642342457271,0.7839406417718469,-0.0827065223334908,-0.2864654769062346,0.435183089973139,0.7788979242711495,0.7003288042586524,-0.2901662257437085,-0.6001136073407037,1,A003
-0.3807427978880774,-1.17280852914784,-1.0427388389133592,-0.952061116183226,1.0512111467206782,-0.0766007383119085,-0.886699088917726,-1.519712596584016,-0.1187027302597152,-0.0712898968379667,1.7870534444097392,0,A001
-0.2428118275863612,0.8962923920970943,0.5060045900718113,-1.3145895711263509,1.283122531774002,-0.1627506965939684,0.6896724002560131,0.7982437151525696,0.7329313808573947,-0.0658621860763473,0.923500903722436,1,A004
-0.4557594588835121,-1.2453372275963606,-0.8674701386470678,-1.4323081646134386,2.671910997679119,0.0141996899889586,0.4928099285829088,-1.2064388446862837,-1.7522566539590143,-0.495794835657685,3.369140657743468,0,A001
-0.2821510516226076,-1.2522267534908216,-1.4381838507734328,-1.338475376580445,0.1287453988836671,-0.2850933853258446,-0.4873745986284723,-0.9993650723869004,-1.60446598586915,-0.3033366179439546,1.018148155223027,0,A001
-0.2124458680877082,0.7814629289146802,0.7688642342457271,0.7839406417718469,-0.0827065223334908,-0.2676265614470597,0.435183089973139,0.7788979242711495,0.7003288042586524,-0.2842855089892467,-0.6001136073407037,1,A003
-0.2821510516226076,-1.317394710164589,-1.4957357414076498,-1.2731587180743784,-0.1062011802465083,-0.2873563181137334,0.293251137880584,-1.1045325562387822,-1.7189654272630794,-0.3043303419579856,1.1133400236091286,0,A002
0.2091883686507045,-0.7510541428127516,-1.301304621007764,-1.0394985042151843,-0.4295338823571236,-0.500160885536855,0.7186774690203677,-1.332667553488818,-1.862390258981086,-0.1455933021958289,1.16380377083488,0,A002
-0.2222325557473359,-1.3106531974052338,-1.239429065676195,-1.2649002899874044,-0.0827065223334908,-0.2362894682003748,-0.4873745986284723,-1.1703269919490726,-1.901572295003398,-0.2070163688696675,1.446511562960485,0,A001
4.8055284331467085,0.7814629289146802,0.7688642342457271,0.7839406417718469,-0.0827065223334908,-0.2970386532021806,-0.7712385028135839,0.7788979242711495,0.7003288042586524,-0.2873163672320412,-0.6001136073407037,1,A003
-0.07705802210087,-1.013702444258492,-1.1601664056408842,-1.4839399363381194,-0.1038223085998479,-0.4337807476624028,-0.2734140703968429,-1.529247387270569,-1.9498618549634543,4.256193631680585,2.764272238115391,0,A001
-0.2947339357564146,0.7814629289146802,0.7688642342457271,0.7839406417718469,-0.0827065223334908,-0.2955881132851438,0.7190469941582505,0.7788979242711495,0.7003288042586524,4.329789448622408,-0.6001136073407037,1,A003
-0.1255640490685643,-0.973577559437471,-1.261512930686999,-1.4578472007467038,5.6030006926167575,-0.3140046146239127,0.7190469941582505,-1.1933809477688202,-1.72291368386287,4.114596383975402,2.747467097570543,0,A002
-0.2821510516226076,-1.3286305647635144,-1.318395613290586,-1.2641495237976794,-0.0357172065074557,-0.2887140777864668,0.364217113926861,-1.482462011755766,-1.1563388617929091,-0.3058919082657486,1.0816094008137611,0,A002
4.557790942879731,-1.4638116457080452,0.7300505371674078,-1.6742354963599255,-0.3062298936730078,-0.0399840150902305,-0.0894692006504073,0.8837946606843786,0.9157831356262416,4.203883998504976,-0.3823822173015044,1,A003
-0.2773575719525858,0.7814629289146802,0.7688642342457271,0.7839406417718469,-0.0827065223334908,-0.2446065005067957,0.435183089973139,0.7788979242711495,0.7003288042586524,-0.193667816149763,-0.6001136073407037,1,A003
-0.2236306539844256,0.7814629289146802,0.7688642342457271,0.7839406417718469,-0.0827065223334908,-0.2399350529216637,0.5771150420656947,0.7788979242711495,0.7003288042586524,-0.251721173049452,-0.6001136073407037,1,A003
-0.2070532034589338,0.7814629289146802,0.7688642342457271,0.7839406417718469,-0.0827065223334908,-0.2063621820805446,0.293251137880584,0.7788979242711495,0.7003288042586524,0.1466201960035321,-0.6001136073407037,1,A003
-0.3065179066118847,0.7814629289146802,0.7688642342457271,0.7839406417718469,-0.0827065223334908,-0.2856613814556047,0.293251137880584,0.7788979242711495,0.7003288042586524,-0.2890326705648461,-0.6001136073407037,1,A004
3.1562713586329347,-1.1856340807156551,-1.0193808775025532,-1.2511675854232465,0.1112171851114521,-0.3874273615986792,0.0844050503657454,-1.1546512088370515,-2.1997956413387687,-0.476698297901385,2.284984403503119,0,A002
-0.2286238619740316,0.7814629289146802,0.7688642342457271,0.7839406417718469,-0.0827065223334908,-0.2413524031578115,0.5771150420656947,0.7788979242711495,0.7003288042586524,-0.2947551012799301,-0.6001136073407037,1,A003
-0.2705668090867217,-1.099419130945436,-1.4053926572725417,-1.3099462613708983,0.4811652675789305,-0.2500579055928199,0.0803532097417503,-1.4353179672704397,-0.9806414431022246,4.32843230554039,4.587843219701845,1,A003
-0.3015246986222787,-1.023015319672743,-1.4341686025896505,-1.1838175414971153,-3.2544853405908616,-0.2883459740529702,-1.055102406998695,-1.4560406241870665,-0.3548427720354036,-0.2445642307398275,-1.837607896360027,1,A003
-0.2821510516226076,-1.3286305647635144,-1.3337873979950856,-1.2633987576079548,-0.1062011802465083,-0.2887140777864668,-0.1325447183970833,-1.4788355467953562,-1.1504164768932237,-0.3050401448251506,1.0816094008137611,0,A001
-0.2090504866547761,0.7814629289146802,0.7688642342457271,0.7839406417718469,-0.0827065223334908,-0.2590138392563548,0.293251137880584,0.7788979242711495,0.7003288042586524,-0.2392868464224559,-0.6001136073407037,1,A003
1.520996217583901,-1.315147539244804,-1.198607375807739,-1.3347215456318202,3.0420829800978444,1.2964974953231356,-3.2550476644333077,-1.0773340690357092,-0.3045025003880726,-0.2836012590252997,1.5892993655396377,0,A001
-0.2661727860558684,0.7814629289146802,0.7688642342457271,0.7839406417718469,-0.0827065223334908,-0.2820784045414473,0.7190469941582505,0.7788979242711495,0.7003288042586524,-0.2942064236636116,-0.6001136073407037,1,A004
-0.2252284805410995,0.7814629289146802,0.7688642342457271,0.7839406417718469,-0.0827065223334908,-0.2299909719407508,0.5771150420656947,0.7788979242711495,0.7003288042586524,-0.3062340332477221,-0.6001136073407037,1,A003
-0.2202352725514935,0.7814629289146802,0.7688642342457271,0.7839406417718469,-0.0827065223334908,-0.2936299221126907,0.435183089973139,0.7788979242711495,0.7003288042586524,-0.317712965215514,-0.6001136073407037,1,A004
-0.2621782196641837,-1.3263833938437293,-1.3471715586076942,-1.267903354746304,-0.0122225485944381,-0.2757399298025706,-0.1325447183970833,-1.0535030135815884,-1.530436174623075,-0.2985099584472328,1.049878778018394,0,A002
-0.322332695528076,-0.965399277678245,-1.2953658801230068,-1.5539224643455314,-0.017642422761848,-0.0310503841037451,-0.3972603424190708,-0.9084799972133712,-0.6982589415339665,-0.2832203721542352,1.400475134005476,0,A001
-0.0298941839877139,-1.0657115671486594,-1.1919152955014345,-1.2536387971415308,-2.6201295769393877,2.164257542696514,-3.184081688387029,-1.31072299255922,0.2038355368349758,4.08148053120782,-2.5832775320511576,0,A001
-0.2681700692517109,-1.2117776769346902,-1.1162947880401957,-1.2183527862244607,-1.6568486025056677,-0.2673384146720686,-0.700272526767306,-1.1589295306449277,-0.0676071044006326,-0.3053588463125076,0.3835356993156815,1,A004
-0.0901471053231093,-1.1059034193348731,-0.4715505628112106,-1.3030926265877865,-0.0723094381966252,2.378488683703852,-2.5563631349102267,-1.433623512609116,-2.087895651365013,-0.4792742767482308,1.1030817348202278,0,A001
-0.2170396194381457,0.7814629289146802,0.7688642342457271,0.7839406417718469,-0.0827065223334908,-0.2969111746551295,0.7190469941582505,0.7788979242711495,0.7003288042586524,-0.2818927635240336,-0.6001136073407037,1,A003
-0.3460515877769108,0.9385190074203164,0.9454902112014606,-0.98192454778472,0.0233695074645337,-0.1350338253824005,-1.4613132989108415,0.8272223572553739,0.96620641008348,-0.2156142224780027,-0.4951223757736414,1,A004
-0.2977298605501782,0.7814629289146802,0.7688642342457271,0.7839406417718469,-0.0827065223334908,-0.2646266668812485,0.5771150420656947,0.7788979242711495,0.7003288042586524,-0.2637587198737028,-0.6001136073407037,1,A004
-0.1840653267483759,0.9845016730886964,0.8656838699326272,0.5449911393911813,-0.2550855859499629,-0.2470474272937741,0.7212340046037687,0.761598709363997,0.824041360882407,-0.0939893844828421,-0.5877996729934895,1,A004
-0.2150423362423033,0.7814629289146802,0.7688642342457271,0.7839406417718469,-0.0827065223334908,-0.3061786387324637,0.5771150420656947,0.7788979242711495,0.7003288042586524,-0.2955103315305936,-0.6001136073407037,1,A004
-0.2322189717265479,0.7814629289146802,0.7688642342457271,0.7839406417718469,-0.0827065223334908,4.605087020150612,0.435183089973139,0.7788979242711495,0.7003288042586524,-0.3347723673249571,-0.6001136073407037,1,A003
3.474738639756925,-1.3241362229239444,-1.2487979781050211,-1.1139962858526995,-2.4321723136352467,0.8730205508178364,-1.6228302153689178,-0.9796785483161048,-0.7684226508634762,2.1827067557350754,1.049878778018394,0,A001
-0.2903399127255614,0.7814629289146802,0.7688642342457271,0.7839406417718469,-0.0827065223334908,-0.2635992953955469,-1.835728143507751,0.7788979242711495,0.7003288042586524,-0.313831763137856,-0.6001136073407037,1,A004
-0.1319185185299008,-1.4165421684279085,-1.5010944722396335,-1.2749245103832747,1.8360010562225453,-0.2405022099979624,0.3266477673429636,-1.3513764160873123,-0.8245982335249443,-0.5131218396099608,1.120456597850917,0,A001
-0.5306816726560347,0.6356012103351885,0.6863696880043668,0.9373305721118916,-0.1263112214583562,-0.5124477281488943,0.5284950738583867,1.022631562055329,0.7305303265783987,-0.2561218567777952,-0.5488565082604429,1,A003
-0.253190445282893,0.7814629289146802,0.7688642342457271,0.7839406417718469,-0.0827065223334908,-0.2260715723521273,0.7190469941582505,0.7788979242711495,0.7003288042586524,-0.3133363207365748,-0.6001136073407037,1,A004
-0.2855464330555397,0.7814629289146802,0.7688642342457271,0.7839406417718469,-0.0827065223334908,-0.2785851906278763,0.5771150420656947,0.7788979242711495,0.7003288042586524,-0.3147034010587346,-0.6001136073407037,1,A003
-0.2302216885307055,0.7814629289146802,0.7688642342457271,0.7839406417718469,-0.0827065223334908,-0.2383638232559396,0.293251137880584,0.7788979242711495,0.7003288042586524,-0.1989175181553151,-0.6001136073407037,1,A004
-0.0075093442162507,-1.25537319606261,0.5164282576899113,0.9443953916424744,-0.2761873456872404,-0.567573747609742,0.3289418614223119,0.983086379260934,0.4568371354820003,-0.1171796743345851,-0.7434970901182825,1,A003
-0.1229804242958691,-1.2599624087274257,-0.9457833121010144,-1.000730448265393,0.9909453993681115,-0.0913358851308629,-0.4917737888457186,-0.9264397437829356,-1.8600130646074808,4.1806665611129565,1.1291815794343552,0,A001
-0.3104057569564042,-1.2418247115535297,-1.2012645489356084,-1.1636891372385143,-0.1338440478681456,-0.3407437115783258,0.1102576998261182,-1.2070537858404815,-0.9724224298362586,1.743248595563364,1.3561720222549831,0,A001
-0.2649086634346422,0.530864680425179,0.6660946791160816,0.7626156721965238,0.0233256420865313,-0.095531959718614,0.8199821239440264,0.6931171135946619,0.8411394167395578,-0.5461280332524087,-0.8110929589332192,1,A004
-0.2759594737154962,-1.3241362229239444,-1.2012842079302604,-1.2686541209360291,-0.0357172065074557,-0.2356513211541901,-1.480898263276362,-1.117484216811674,-0.0350339874523595,-0.3060977510972263,1.0816094008137611,1,A004
-0.2779567569113386,0.7814629289146802,0.7688642342457271,0.7839406417718469,-0.0827065223334908,-0.2500156641807793,0.7190469941582505,0.7788979242711495,0.7003288042586524,-0.297654645992299,-0.6001136073407037,1,A003
-0.2703670807671375,0.7814629289146802,0.7688642342457271,0.7839406417718469,-0.0827065223334908,-0.2011906263492892,0.5771150420656947,0.7788979242711495,0.7003288042586524,-0.2308075413713032,-0.6001136073407037,1,A004
-0.239009734592412,0.7814629289146802,0.7688642342457271,0.7839406417718469,-0.0827065223334908,-0.2415500326212871,-0.1325447183970833,0.7788979242711495,0.7003288042586524,-0.2843664265161035,-0.6001136073407037,1,A003
-0.2601809364683413,0.7814629289146802,0.7688642342457271,0.7839406417718469,-0.0827065223334908,-0.2594958439401751,0.293251137880584,0.7788979242711495,0.7003288042586524,-0.1819830413504931,-0.6001136073407037,1,A004
-0.2823507799421918,0.7814629289146802,0.7688642342457271,0.7839406417718469,-0.0827065223334908,-0.2529416362755197,0.7190469941582505,0.7788979242711495,0.7003288042586524,-0.2891015214429611,-0.6001136073407037,1,A003
-0.2202352725514935,0.7814629289146802,0.7688642342457271,0.7839406417718469,-0.0827065223334908,-0.29429522435233,0.5771150420656947,0.7788979242711495,0.7003288042586524,-0.2797590961053356,-0.6001136073407037,1,A003
-0.3079160048489744,0.7814629289146802,0.7688642342457271,0.7839406417718469,-0.0827065223334908,-0.2573920707583678,-0.0615787423508054,0.7788979242711495,0.7003288042586524,-0.3100279295727189,-0.6001136073407037,1,A004
1.2862498430793163,-1.5910039665636877,-1.6296243925166418,-1.3328530616244618,-0.0702146964170128,-0.1959034579469762,-0.6906805728809595,-1.189456659586975,-0.8929239673436447,0.3550482487246065,0.9825210124180652,0,A002
-0.5509502263194794,0.6669199744931724,0.6484432656858431,0.9328385344131596,-0.2678947078933764,-0.3947243288816504,0.3292887654742722,0.9842136709514931,0.8195595761822498,-0.2891281553488324,-0.4285686494616726,1,A003
-0.2042570069847544,0.7814629289146802,0.7688642342457271,0.7839406417718469,-0.0827065223334908,-0.2661450947819219,0.5771150420656947,0.7788979242711495,0.7003288042586524,-0.3233594470238115,-0.6001136073407037,1,A004
-0.0962039860896812,-1.3263833938437293,-1.2273833211248473,-1.4067950998454106,0.9040691100132464,2.23122300406665,-2.261523999785418,-1.2223926674520975,-0.8207370508107025,0.0240414996613438,-2.043856944529914,0,A001
-0.3159051376323439,-1.3308777356832997,-1.4964049494382805,-1.261897225228505,-0.0827065223334908,-0.2879386461511502,0.5771150420656947,-1.360716402370583,-1.7021853367139692,-0.3032926101661904,1.1133400236091286,1,A004
-0.206454018500181,0.7814629289146802,0.7688642342457271,0.7839406417718469,-0.0827065223334908,-0.2486631846845511,0.7190469941582505,0.7788979242711495,0.7003288042586524,-0.2334579452772971,-0.6001136073407037,1,A004
-0.2821510516226076,-1.3129003683250189,-1.3143803651068031,-1.2491342000031815,-0.176685153985561,-0.2865265760915075,-0.2035106944433612,-1.478058447160983,-1.139558771243799,-0.3039754405244031,1.1609359578021794,0,A001
-0.2901401844059771,0.7814629289146802,0.7688642342457271,0.7839406417718469,-0.0827065223334908,-0.2549518749020942,0.435183089973139,0.7788979242711495,0.7003288042586524,0.1731433997408857,-0.6001136073407037,1,A004
-0.4712920297348991,-1.172373721800387,0.1369684423706002,-1.369681887434688,0.3113472817045351,-0.3808988557603561,-0.5076773990916782,-1.3310499679247445,0.2053330628948923,-0.4604883736742439,-2.124807659187567,0,A002
-0.2513928904066348,0.7814629289146802,0.7688642342457271,0.7839406417718469,-0.0827065223334908,-0.3051044999691458,0.5771150420656947,0.7788979242711495,0.7003288042586524,4.335509040126024,-0.6001136073407037,1,A003
-0.2228317407060886,0.7814629289146802,0.7688642342457271,0.7839406417718469,-0.0827065223334908,-0.2287659709915736,-0.345442646535917,0.7788979242711495,0.7003288042586524,-0.2348952960833062,-0.6001136073407037,1,A003
0.6847337434846926,-1.308406026485449,-0.0475695631233983,-1.4886286145254246,3.27702955922802,0.726866019468317,-1.480898263276362,-1.415890476411102,0.1238833406892149,0.703674905760339,-1.9962610103368632,0,A002
-0.2250287522215153,0.7814629289146802,0.7688642342457271,0.7839406417718469,-0.0827065223334908,-0.2949069705159893,-0.345442646535917,0.7788979242711495,0.7003288042586524,-0.3344848971637553,-0.6001136073407037,1,A004
-0.5189232181527913,1.0386047952841422,0.5666462152661587,0.7314980341089863,-0.1113526020217162,-0.289415201313512,-0.68701008859107,0.5944601203756518,0.589244852896981,-0.3810320374885185,-0.334569652098901,1,A003
-0.233217613324469,0.7814629289146802,0.7688642342457271,0.7839406417718469,-0.0827065223334908,-0.2400874237293816,0.7190469941582505,0.7788979242711495,0.7003288042586524,-0.2762228582211198,-0.6001136073407037,1,A003
-0.2651741444579473,0.7814629289146802,0.7688642342457271,0.7839406417718469,-0.0827065223334908,-0.24548074687385,-0.2744766704896391,0.7788979242711495,0.7003288042586524,-0.2932680642732194,-0.6001136073407037,1,A003
-0.2727638206021484,0.7814629289146802,0.7688642342457271,0.7839406417718469,-0.0827065223334908,-0.2580136229641079,0.5771150420656947,0.7788979242711495,0.7003288042586524,-0.3269666651947438,-0.6001136073407037,1,A003
-0.0558588655336649,-1.3218890520041593,-0.0368622346333114,-1.1552884262875691,0.2227240305357374,1.4813021643788675,-2.8292518081556404,-1.0022144377129365,-0.0360210516023072,-0.2909129383599661,1.1133400236091286,0,A002
-0.2535899019220614,0.7814629289146802,0.7688642342457271,0.7839406417718469,-0.0827065223334908,-0.2615256946509114,-0.7712385028135839,0.7788979242711495,0.7003288042586524,-0.2786865839730494,-0.6001136073407037,1,A003
-0.2463996824170288,0.7814629289146802,0.7688642342457271,0.7839406417718469,-0.0827065223334908,-0.2478357055951131,-1.409932287230084,0.7788979242711495,0.7003288042586524,-0.2954932962617816,-0.6001136073407037,1,A003
-0.1834272710410774,-1.1949793055324247,-0.6430959520352478,-1.1431559916913725,2.535984329981648,-0.1383184184706494,0.2475064868187032,-1.1373079867582108,-1.269105827660084,-0.1249821401876428,1.1909616992333527,0,A002
-0.3087149181273114,0.7814629289146802,0.7688642342457271,0.7839406417718469,-0.0827065223334908,-0.2932271200764464,0.7190469941582505,0.7788979242711495,0.7003288042586524,4.338436267150213,-0.6001136073407037,1,A003
-0.3684321826712695,-1.5414279301356588,-1.4632455840687395,-1.4475662217077785,0.1605588649671136,-0.1903739238984138,-0.4362146366703701,-1.092871461362281,-0.8120316109695626,-0.0297482283611902,0.8529718366127395,0,A002
-0.2368127230769854,0.7814629289146802,0.7688642342457271,0.7839406417718469,-0.0827065223334908,-0.2371991671811061,0.7190469941582505,0.7788979242711495,0.7003288042586524,-0.2583812533520609,-0.6001136073407037,1,A003
-0.2813521383442706,0.7814629289146802,0.7688642342457271,0.7839406417718469,-0.0827065223334908,-0.2705849689117598,0.293251137880584,0.7788979242711495,0.7003288042586524,-0.2259162898136693,-0.6001136073407037,1,A004
-0.3255534606236249,-1.1843191102055763,-1.8152614334459631,-1.343115387316441,0.015335507335225,0.2372693633273652,-0.2926710820249828,-1.328821601523228,-1.5747817371727342,0.0055842270022515,0.918856080757328,0,A002
-0.2338167982832218,0.7814629289146802,0.7688642342457271,0.7839406417718469,-0.0827065223334908,-0.2562032767337968,-0.7712385028135839,0.7788979242711495,0.7003288042586524,-0.2688572338685488,-0.6001136073407037,1,A003
-0.261579034705431,-1.3263833938437293,-1.488374453070715,-1.26114645903878,-0.2941584435506488,-0.2369736282132465,0.7190469941582505,-1.3708186976174384,-1.761409185710829,-0.2892044428587,0.9864175324276596,1,A003
-0.1174820576015851,1.0437367744162516,0.4934265682621509,-1.2942213136773986,-0.3459756339617328,-0.192745708003366,0.6834093762206468,0.5928182661203066,0.6249208950895913,-0.5442399679444698,-0.3871232618482728,1,A004
1.0799980224214871,-1.5677315103852971,-1.1017441928704812,-0.9917069078562188,5.244792945351166,-0.0178471828756044,-0.4142103531193641,-1.400432016425374,-1.4697605484827632,-0.4988687258580818,1.0321446206528069,0,A002
-0.232536863135303,0.6520703124154544,0.8940464082834245,0.8547299887206026,0.126461550363312,-0.2652744656395447,0.651193180728023,0.6313795034621402,0.5959039115127464,-0.3024828699590251,-0.3910545162333452,1,A004
-0.2044567353043387,0.7814629289146802,0.7688642342457271,0.7839406417718469,-0.0827065223334908,-0.2206412879721233,0.5771150420656947,0.7788979242711495,0.7003288042586524,-0.3032379553454187,-0.6001136073407037,1,A004
-0.202259723788912,-1.3106531974052338,-1.359217303159042,-1.2528880309518062,0.1287453988836671,-0.2241450622387046,1.996434562991252,-1.4910101077338749,-1.0418394203989798,-0.1499482183496035,1.2402625147905977,0,A001
-0.0216117224217355,-1.279245847859966,0.7180763361032553,0.7493912679666835,-0.2847044695878562,-0.2933691211010169,0.1697046848841355,0.8740427243696743,0.7186337174396126,-0.3929454777554776,-0.6312859928830288,1,A004
-0.2236306539844256,0.7814629289146802,0.7688642342457271,0.7839406417718469,-0.0827065223334908,-0.2603731075509466,0.7190469941582505,0.7788979242711495,0.7003288042586524,-0.312089197098966,-0.6001136073407037,1,A004
-0.2715654506846429,0.7814629289146802,0.7688642342457271,0.7839406417718469,-0.0827065223334908,-0.1755757358122459,-0.4164086225821944,0.7788979242711495,0.7003288042586524,-0.2913295926429919,-0.6001136073407037,1,A004
-0.2521918036849718,0.7814629289146802,0.7688642342457271,0.7839406417718469,-0.0827065223334908,-0.2878345512429073,-0.1325447183970833,0.7788979242711495,0.7003288042586524,-0.3317195051932805,-0.6001136073407037,1,A003
3.675265872619501,-1.3129003683250189,-1.193253711562695,-1.4105489307940349,2.4547165322724056,-0.2032016192867931,-1.9776600956003068,-0.9947024745806592,-0.6144406434716401,1.9675392439912864,1.0657440894160777,0,A001
-0.3061184499727162,0.7814629289146802,0.7688642342457271,0.7839406417718469,-0.0827065223334908,-0.2650234344300582,0.435183089973139,0.7788979242711495,0.7003288042586524,-0.3036013744134072,-0.6001136073407037,1,A003
-0.2422053877057598,-1.3263833938437293,-1.2273833211248473,-1.2656510561771293,-0.1062011802465083,-0.2534123262954005,-0.345442646535917,-1.2107361729364952,-2.0081752231977457,-0.2706147057676493,1.1133400236091286,0,A002
-0.2631768612621049,0.7814629289146802,0.7688642342457271,0.7839406417718469,-0.0827065223334908,-0.2798675192076799,-0.8422044788598614,0.7788979242711495,0.7003288042586524,-0.3070098477815334,-0.6001136073407037,1,A003
-0.2719649073238114,0.7814629289146802,0.7688642342457271,0.7839406417718469,-0.0827065223334908,-0.2379308487825235,-0.0615787423508054,0.7788979242711495,0.7003288042586524,-0.2784622862670253,-0.6001136073407037,1,A003
-0.2637760462208576,0.7814629289146802,0.7688642342457271,0.7839406417718469,-0.0827065223334908,-0.2682186955265573,0.5771150420656947,0.7788979242711495,0.7003288042586524,-0.2221018092055247,-0.6001136073407037,1,A003
-0.2937352941584935,0.7814629289146802,0.7688642342457271,0.7839406417718469,-0.0827065223334908,-0.2608498320582619,0.5771150420656947,0.7788979242711495,0.7003288042586524,-0.2746087665011866,-0.6001136073407037,1,A003
-0.2318195150873794,0.7814629289146802,0.7688642342457271,0.7839406417718469,-0.0827065223334908,-0.2750565241006282,-0.2744766704896391,0.7788979242711495,0.7003288042586524,-0.2980783983039965,-0.6001136073407037,1,A004
-0.1635124297895697,-1.3241362229239444,-0.8325505830528932,-1.3287154161140209,3.8643960070534575,-0.2454596261678298,1.002910898343362,-1.0977976927408784,-0.9312882356048412,1.6743260677912395,1.2085318919952304,0,A002
-0.2733630055609011,0.7814629289146802,0.7688642342457271,0.7839406417718469,-0.0827065223334908,-0.301774971527232,-0.7712385028135839,0.7788979242711495,0.7003288042586524,-0.3014087933567346,-0.6001136073407037,1,A004
-0.2438032142624337,0.7814629289146802,0.7688642342457271,0.7839406417718469,-0.0827065223334908,-0.2946859574137055,0.364217113926861,0.7788979242711495,0.7003288042586524,-0.2902265589874175,-0.6001136073407037,1,A003
-0.2422053877057598,-1.317394710164589,-1.2628513467482598,-1.267903354746304,-0.0592118644204732,-0.2638218171196893,-0.5583405746747502,-1.1845738185792536,-1.9736279779495771,-0.2902052649014026,1.2402625147905977,0,A001
-0.2130450530464609,0.7814629289146802,0.7688642342457271,0.7839406417718469,-0.0827065223334908,-0.2654978960045857,0.435183089973139,0.7788979242711495,0.7003288042586524,-0.2277596478596967,-0.6001136073407037,1,A004
-0.2821510516226076,0.7814629289146802,0.7688642342457271,0.7839406417718469,-0.0827065223334908,-0.1779525695504585,0.293251137880584,0.7788979242711495,0.7003288042586524,-0.2721606564123346,-0.6001136073407037,1,A003
-0.293335837519325,0.7814629289146802,0.7688642342457271,0.7839406417718469,-0.0827065223334908,-0.274307493347837,-0.1325447183970833,0.7788979242711495,0.7003288042586524,-0.3343081562498312,-0.6001136073407037,1,A004
-0.2821510516226076,-1.3241362229239444,-1.488374453070715,-1.267152588556579,-0.0827065223334908,-0.2887140777864668,0.0803532097417503,-1.0972796263179627,-1.755486800811143,-0.3066017111329135,1.1292053350068123,0,A001
-0.2422053877057598,-1.3286305647635144,-1.359217303159042,-1.2633987576079548,0.0582614251446145,-0.2581644851499671,0.0803532097417503,-1.071376305172179,-1.8117494573581605,-0.2845268419640828,1.0022828438253433,0,A001
-0.0485616735215558,0.9249104626812084,-0.903615759353056,0.5498775310392349,0.0856129543056573,-0.4144467645277441,0.4125359118245307,0.7212414867171987,0.588718553168323,-0.3375230377745382,-0.791272231961477,1,A003
-0.4140121640981087,0.7719721782311247,0.5519797961468923,0.591176680054669,-0.2651105275373696,-0.4489061351384624,0.5516207128356471,0.6139599106113581,0.9580019185400768,-0.2518146418218115,-0.7738119411009566,1,A004
-0.2963294340635197,-1.166571922245254,0.5717374751736553,0.8839073758921836,0.1697405997107194,-0.4267022072561773,0.4820281674978081,0.8571580693342884,0.5202326573358564,-0.4772222753974059,-0.3444245650152023,1,A004
-0.2667719710146212,0.7814629289146802,0.7688642342457271,0.7839406417718469,-0.0827065223334908,-0.2726879877826378,-0.0615787423508054,0.7788979242711495,0.7003288042586524,-0.3128543645897698,-0.6001136073407037,1,A003
-0.202259723788912,-1.3286305647635144,-1.333118189964455,-1.2633987576079548,-0.0357172065074557,-0.1871083956102568,1.783536634852418,-1.48557041029326,-1.0230852015499745,0.0583789231633167,1.097474712211445,0,A002
0.2546304874049853,-1.1614002269956043,-1.7098758359446296,-1.1661343927147296,-0.1833475460340088,2.6410341744654384,-2.195089259921503,-1.0855256404279765,-0.951074813777019,0.1083954431809372,1.3763408263375252,0,A002
-0.239009734592412,0.7814629289146802,0.7688642342457271,0.7839406417718469,-0.0827065223334908,-0.2607857156292718,0.7190469941582505,0.7788979242711495,0.7003288042586524,-0.2865767526444552,-0.6001136073407037,1,A003
-0.2124458680877082,0.7814629289146802,0.7688642342457271,0.7839406417718469,-0.0827065223334908,-0.2559053239167247,-0.2035106944433612,0.7788979242711495,0.7003288042586524,-0.2912330594530575,-0.6001136073407037,1,A004
-0.2392094629119962,-1.2567210953303918,-1.1537704377554998,-1.2100943581374868,-0.2941584435506488,-0.2439246034267118,-0.4873745986284723,-0.9848592125452614,-0.7042634811168778,-0.0296891577773104,1.4623768743581689,1,A004
-0.2416062027470071,0.7814629289146802,0.7688642342457271,0.7839406417718469,-0.0827065223334908,-0.2346292298449936,0.0093872336954724,0.7788979242711495,0.7003288042586524,-0.3071021221542648,-0.6001136073407037,1,A003
-0.2413057111391185,1.0058326345744313,0.8589180200376964,0.8230363980626764,-0.124853631689477,-0.0726756052118916,0.243418963789473,0.6031709774173595,0.4858065419892636,4.588413213972316,0.2787892254410068,1,A004
0.0520275261750774,0.967306068157644,0.7701569601960604,0.8037635523678487,0.1655042834805506,-0.0609378515377177,0.143794748125267,0.7065567459990452,0.5608469732517463,-0.141349530977798,1.5814651087479357,1,A003
-0.2222325557473359,-1.2971701718865234,-1.3465023505770637,-1.2408757719162078,-0.1296958381595259,-0.2407399026832229,-0.6293065507210281,-1.215398770742736,-1.9499384383508336,-0.2254002631292403,0.6691113044739869,0,A002
-0.2116469548093713,0.7814629289146802,0.7688642342457271,0.7839406417718469,-0.0827065223334908,-0.2452785915447987,0.5771150420656947,0.7788979242711495,0.7003288042586524,-0.3134740224928048,-0.6001136073407037,1,A004
-0.2222325557473359,-1.2702041208491022,-1.1497551895717173,-1.2521372647620812,0.0582614251446145,-0.2392312808246303,-0.4873745986284723,-1.5135459971307066,-1.1030373976957353,-0.2192249781849051,2.128719953060881,0,A002
0.58047556066172,-1.3016645137260934,-0.3206064396206138,-1.2558910957107057,0.3871866359268603,1.0480780140452013,-0.2744766704896391,-1.0589427110222027,-0.9115469526058878,0.5904457327844477,1.6686259225280555,0,A001
-0.2354146248398957,0.7814629289146802,0.7688642342457271,0.7839406417718469,-0.0827065223334908,-0.2458111350608818,-0.7712385028135839,0.7788979242711495,0.7003288042586524,-0.3123000085505139,-0.6001136073407037,1,A004
-0.2188371743144039,0.7814629289146802,0.7688642342457271,0.7839406417718469,-0.0827065223334908,-0.2725408971514251,0.435183089973139,0.7788979242711495,0.7003288042586524,0.0353947965216476,-0.6001136073407037,1,A003
-0.2739621905196538,0.7814629289146802,0.7688642342457271,0.7839406417718469,-0.0827065223334908,-0.259788516580742,0.0093872336954724,0.7788979242711495,0.7003288042586524,-0.2908313110302421,-0.6001136073407037,1,A003
-0.2705668090867217,0.7814629289146802,0.7688642342457271,0.7839406417718469,-0.0827065223334908,-0.2539750422486556,0.293251137880584,0.7788979242711495,0.7003288042586524,-0.3123745378515662,-0.6001136073407037,1,A003
-0.0035030350578205,0.8717911760577468,0.61215291471129,0.6281083794830187,-0.337967113178034,-0.5111269248475453,0.6165261982213956,1.0330100655077383,-1.497747311860535,4.502440788815105,-0.7065573761994347,1,A004
-0.2950535176408115,0.9321966795730264,-1.432705318440494,0.5598902326256006,-0.2846590291669272,-0.4512975707520619,0.0271055038122572,0.912886891420787,0.8333974224140428,-0.3078720629508407,-0.5760124776282619,1,A004
-0.0103618223007059,0.5774226142807138,-1.104928005160004,0.5415410115722523,-0.297289704566126,-0.5503991541811479,0.7864120360750281,0.69545079531776,0.6713611759916257,-0.0779464241889222,-0.3920732328690742,1,A003
-0.4217247932459673,-1.2716903602558385,-1.3233637937333458,-1.1999433816625305,-0.2453136018801042,4.683546820105896,-0.7178284005752793,-1.4914243578281006,-1.3739495042662926,-0.406042621218893,1.0378352386552183,0,A002
-0.2222325557473359,-1.2117776769346902,-1.398031368935607,-1.2416265381059324,0.4341759517528955,-0.2402118850327155,-0.5583405746747502,-1.2368985272937367,-2.030877698646542,-0.2234837953878949,-0.8380932783059581,0,A001
-0.2585831099116674,0.7814629289146802,0.7688642342457271,0.7839406417718469,-0.0827065223334908,-0.2791705359090101,0.293251137880584,0.7788979242711495,0.7003288042586524,-0.3340391409631756,-0.6001136073407037,1,A003
-0.2288235902936158,0.7814629289146802,0.7688642342457271,0.7839406417718469,-0.0827065223334908,-0.2710609391081458,0.7190469941582505,0.7788979242711495,0.7003288042586524,-0.3020547139658547,-0.6001136073407037,1,A003
-0.3539724976950645,-1.3971790129401032,-1.0053415975094144,-0.9895825258940892,0.3855404397219403,-0.356691865594587,0.998120092460538,-1.3078330838788936,-0.986324912553782,0.0271574850027584,1.23151779654726,0,A001
-0.5440948483051982,-1.300382184119422,-1.0563079639352482,-1.0591011144172973,-0.0520243028912215,-0.2532764940164974,2.095468541742115,-1.169135551965087,-1.929206009885832,2.7876883845873035,1.2348789048445252,0,A002
-0.2651741444579473,-1.153351233020278,-1.0246132878438268,-1.2866725094894265,3.253534901315002,-0.2761774301415625,-0.8422044788598614,-1.1288816781158189,-0.0794518742000045,4.310794414094207,-0.0448277084217766,1,A004
-0.2264268504586049,0.7814629289146802,0.7688642342457271,0.7839406417718469,-0.0827065223334908,-0.2344376348689524,-0.8422044788598614,0.7788979242711495,0.7003288042586524,-0.2996030548626668,-0.6001136073407037,1,A003
-0.2535899019220614,-1.315147539244804,-1.1350326128978476,-1.270155653315479,-0.2001798118985786,-0.2850624585777435,-0.2744766704896391,-1.1050506226616976,-0.0735294893003184,-0.2331399535928073,1.176801269199863,1,A004
-0.2497950638499609,0.7814629289146802,0.7688642342457271,0.7839406417718469,-0.0827065223334908,-0.2393255696907923,0.5771150420656947,0.7788979242711495,0.7003288042586524,-0.2601763448031212,-0.6001136073407037,1,A003
-0.2477977806541185,0.7814629289146802,0.7688642342457271,0.7839406417718469,-0.0827065223334908,-0.3025172134816595,0.435183089973139,0.7788979242711495,0.7003288042586524,-0.2861033141320562,-0.6001136073407037,1,A003
-0.2268263070977734,0.7814629289146802,0.7688642342457271,0.7839406417718469,-0.0827065223334908,-0.2584269853533623,0.293251137880584,0.7788979242711495,0.7003288042586524,-0.3076728036594655,-0.6001136073407037,1,A003
-0.5152761393460059,-1.2335108499215484,-1.403217683087194,-1.141032861086118,-0.0686709222563123,0.3838220365362781,-0.2474854824569677,-1.2994967853301882,-2.417749800165017,4.029060635489337,0.8750701144113328,0,A002
-0.3041211667768739,-1.2702041208491022,-1.199276583838369,-1.2281127466908843,0.2697133463617725,-0.2976700114500016,-0.7712385028135839,-1.0928760617231794,-0.0715553610004231,-0.2908973226968884,1.4782421857558523,1,A004
1.2054254726408036,-1.3308777356832997,-1.2896196679734773,-1.260395692849055,-3.724378498851213,-0.2189667177090855,0.0093872336954724,-1.371336764040354,-0.8789738356576148,0.5327167557950532,1.3830503173697504,0,A001
